time,seconds_elapsed,z,y,x
1766408799012366800,0.225366943359375,-2.0751214027404785,-0.004430532455444336,0.45156943798065186
1766408799022369500,0.23536962890625,-1.8145527839660645,-0.2119760513305664,0.04915952682495117
1766408799032372000,0.2453720703125,-1.2137956619262695,-0.37017822265625,-0.4405640959739685
1766408799042374400,0.25537451171875,-0.5929269790649414,-0.316852331161499,-0.8156301975250244
1766408799052376800,0.265376953125,-0.3439970016479492,-0.07454156875610352,-1.0450849533081055
1766408799062379300,0.275379150390625,-0.34413909912109375,0.21201682090759277,-1.1254010200500488
1766408799072382000,0.2853818359375,-0.4517097473144531,0.3558337688446045,-1.0083829164505005
1766408799082384100,0.295384033203125,-0.5527524948120117,0.3723294734954834,-0.7702398896217346
1766408799092386800,0.30538671875,-0.708770751953125,0.6581056118011475,-0.8519565463066101
1766408799102389200,0.31538916015625,-0.9331874847412109,0.871171236038208,-0.9016885757446289
1766408799112392000,0.325391845703125,-1.2740325927734375,0.7921452522277832,-0.9425491690635681
1766408799122394400,0.335394287109375,-1.9146833419799805,0.1478569507598877,-1.713724136352539
1766408799132396800,0.345396728515625,-0.38318443298339844,-0.6618773937225342,-1.094498634338379
1766408799142399200,0.355399169921875,-0.3000640869140625,0.12634754180908203,-2.0977842807769775
1766408799152401700,0.365401611328125,-0.06717681884765625,0.824303150177002,-1.840857982635498
1766408799162404400,0.375404296875,0.8181123733520508,1.1640863418579102,-1.1615208387374878
1766408799172406800,0.38540673828125,1.6430082321166992,1.1198399066925049,-0.5693079829216003
1766408799182409200,0.3954091796875,2.4729747772216797,1.0668230056762695,-0.3853326439857483
1766408799202414000,0.4154140625,1.9274444580078125,0.9307706356048584,-0.4032105505466461
1766408799222419200,0.435419189453125,0.20928001403808594,0.9801356792449951,-0.4940322935581207
1766408799232421600,0.445421630859375,-0.8368015289306641,0.9659180641174316,-0.5858967900276184
1766408799242424000,0.455424072265625,-1.7116789817810059,0.9478757381439209,-0.5529073476791382
1766408799252426500,0.465426513671875,-2.3635339736938477,0.973616361618042,-0.4164736568927765
1766408799262429000,0.475428955078125,-2.404325485229492,0.9656100273132324,-0.2477303296327591
1766408799272431600,0.485431640625,-1.6313176155090332,0.8235509395599365,-0.45008644461631775
1766408799282434300,0.495434326171875,-0.9130210876464844,0.5940651893615723,-0.7214361429214478
1766408799292436700,0.505436767578125,-0.3179941177368164,0.2585716247558594,-0.625744640827179
1766408799302439200,0.515439208984375,0.1601409912109375,-0.013642549514770508,-0.7140269875526428
1766408799312441600,0.525441650390625,0.23839569091796875,-0.11471056938171387,-0.8153610229492188
1766408799322444000,0.535444091796875,-0.08693408966064453,-0.12997722625732422,-0.6472243666648865
1766408799332446500,0.545446533203125,-0.5542984008789062,-0.14658808708190918,-0.5915932059288025
1766408799342449000,0.555448974609375,0.8047294616699219,-0.24984431266784668,-0.5148417949676514
1766408799352451600,0.56545166015625,1.2242012023925781,0.028830528259277344,-1.198953628540039
1766408799362454000,0.5754541015625,1.0451860427856445,0.14115071296691895,-1.8097224235534668
1766408799372456400,0.58545654296875,-0.003292083740234375,0.022957801818847656,-1.637856364250183
1766408799382459100,0.595459228515625,-1.3694934844970703,0.014477014541625977,-0.9578187465667725
1766408799402464000,0.615464111328125,-3.2029614448547363,0.3658442497253418,-0.6039018034934998
1766408799412466700,0.625466796875,-3.74629545211792,0.24390602111816406,-0.6233407855033875
1766408799422468900,0.63546875,-3.535377025604248,0.01439046859741211,-1.1840026378631592
1766408799432471600,0.645471435546875,-2.411722183227539,0.543217658996582,-1.4627875089645386
1766408799442474000,0.655473876953125,0.019863128662109375,0.7201721668243408,-2.370692014694214
1766408799452476400,0.665476318359375,2.6591386795043945,0.5477237701416016,-3.0617308616638184
1766408799462478800,0.675478759765625,4.040794372558594,0.07652711868286133,-3.7934951782226562
1766408799472481300,0.685481201171875,4.0529584884643555,-0.23278558254241943,-3.787418842315674
1766408799482484000,0.69548388671875,2.991765022277832,-0.811789870262146,-3.3737919330596924
1766408799492486700,0.705486572265625,1.180354118347168,-1.035644292831421,-3.168910026550293
1766408799502489000,0.715489013671875,-0.52960205078125,-0.6022070646286011,-2.9000513553619385
1766408799512491500,0.725491455078125,-1.4914355278015137,-0.011455059051513672,-2.0842864513397217
1766408799522494000,0.735493896484375,-1.86326265335083,0.39098691940307617,-1.533174753189087
1766408799532496400,0.745496337890625,-1.7901859283447266,0.608100175857544,-1.6269283294677734
1766408799542498800,0.755498779296875,-1.2819499969482422,0.7438168525695801,-1.8342535495758057
1766408799552501500,0.76550146484375,-0.7104873657226562,0.7473962306976318,-1.8253753185272217
1766408799562504000,0.77550390625,-0.26462459564208984,0.6529531478881836,-1.6928060054779053
1766408799572506400,0.78550634765625,0.10065174102783203,0.685727596282959,-1.6004040241241455
1766408799582508800,0.7955087890625,0.1483144760131836,0.5256562232971191,-1.5152498483657837
1766408799592511200,0.80551123046875,0.31323719024658203,-0.5479283332824707,-0.7444335222244263
1766408799602513700,0.815513671875,0.20366954803466797,0.005133152008056641,-0.9597262144088745
1766408799612516000,0.82551611328125,0.642399787902832,1.3188097476959229,-2.1084723472595215
1766408799622518800,0.835518798828125,0.6086740493774414,1.9673759937286377,-2.733612537384033
1766408799632521200,0.845521240234375,-0.2558860778808594,2.0830883979797363,-2.6333823204040527
1766408799642524000,0.85552392578125,-1.3130903244018555,1.3157570362091064,-1.7987030744552612
1766408799652526300,0.8655263671875,-1.8004212379455566,0.6163551807403564,-1.1868464946746826
1766408799662528800,0.87552880859375,-1.7186312675476074,0.39934825897216797,-1.1770284175872803
1766408799672531200,0.88553125,-1.1739826202392578,0.33088040351867676,-1.2903132438659668
1766408799682533600,0.89553369140625,-0.8269739151000977,0.05096864700317383,-0.8647332191467285
1766408799692536000,0.9055361328125,-0.46392345428466797,-0.5551509857177734,-0.131153404712677
1766408799702538500,0.91553857421875,-0.44332313537597656,-0.5317463874816895,-0.3394843339920044
1766408799712541200,0.925541259765625,-0.9421720504760742,-0.38625359535217285,-0.8033031821250916
1766408799722543600,0.935543701171875,-1.5727028846740723,0.14948415756225586,-0.9528535604476929
1766408799732546000,0.945546142578125,-1.9552063941955566,0.8788402080535889,-1.0856573581695557
1766408799742548500,0.955548583984375,-1.8539223670959473,1.6339740753173828,-1.429801106452942
1766408799752551000,0.965551025390625,-1.3281354904174805,2.1809351444244385,-1.7187989950180054
1766408799762553300,0.97555322265625,-0.4419412612915039,2.858330249786377,-1.855592966079712
1766408799772556000,0.98555615234375,0.4818840026855469,2.926370143890381,-1.9495282173156738
1766408799782558700,0.995558837890625,0.9457225799560547,2.1165270805358887,-1.4908990859985352
1766408799792561200,1.00556103515625,0.2976408004760742,1.2114548683166504,-1.0797204971313477
1766408799802563600,1.0155634765625,-0.1153726577758789,0.6502962112426758,-0.6733070015907288
1766408799812566000,1.02556591796875,-0.5287265777587891,0.46847081184387207,-0.5198727250099182
1766408799822568400,1.035568359375,0.16283702850341797,0.7333917617797852,-0.4960118532180786
1766408799832571000,1.04557080078125,1.2123680114746094,1.257781744003296,-0.0596923828125
1766408799842573600,1.055573486328125,1.6822433471679688,1.559633731842041,-0.004746079444885254
1766408799852576000,1.065575927734375,1.4343633651733398,1.3779325485229492,0.0020645856857299805
1766408799862578400,1.075578369140625,0.5804853439331055,0.8863441944122314,-0.13276422023773193
1766408799872580900,1.085580810546875,0.1383228302001953,0.6568591594696045,-0.19518250226974487
1766408799882583300,1.095583251953125,-0.04141521453857422,0.647794246673584,-0.20920848846435547
1766408799892585700,1.105585693359375,0.1418285369873047,0.8307428359985352,-0.4938082695007324
1766408799902588200,1.115588134765625,0.7047605514526367,0.859940767288208,-0.8411473631858826
1766408799912590800,1.1255908203125,1.0468120574951172,0.7245049476623535,-0.7605594396591187
1766408799922593000,1.135593017578125,0.9684238433837891,0.7092592716217041,-0.3780778646469116
1766408799932595700,1.145595703125,0.644068717956543,0.581956148147583,-0.008205413818359375
1766408799942598400,1.155598388671875,0.29512977600097656,0.4565303325653076,0.44863808155059814
1766408799952600800,1.165600830078125,0.36374950408935547,0.6053247451782227,0.5644288063049316
1766408799962603300,1.175603271484375,0.5827102661132812,0.04872250556945801,0.8061897158622742
1766408799972605700,1.185605712890625,2.099696159362793,0.07606720924377441,0.27481991052627563
1766408799982608100,1.195608154296875,1.5187463760375977,0.7036216259002686,-0.5255115032196045
1766408799992610600,1.205610595703125,-0.13189125061035156,0.0905313491821289,-1.670707106590271
1766408800002613000,1.215613037109375,0.38080596923828125,-0.0719907283782959,-1.644388198852539
1766408800012615700,1.22561572265625,1.4215459823608398,0.5297274589538574,-0.6167107820510864
1766408800022618000,1.2356181640625,2.317135810852051,0.7679564952850342,0.3124723434448242
1766408800032620500,1.24562060546875,2.167140007019043,0.6039397716522217,0.012602090835571289
1766408800042623000,1.255623046875,0.8965778350830078,0.62949538230896,-0.24677658081054688
1766408800052625400,1.26562548828125,-0.5376262664794922,0.3293740749359131,-0.08831501007080078
1766408800072630300,1.28563037109375,-2.7681517601013184,0.05652880668640137,-1.2745764255523682
1766408800082632700,1.2956328125,-1.5306081771850586,0.8681371212005615,0.42768949270248413
1766408800092635100,1.30563525390625,-0.11327743530273438,1.9264299869537354,1.8840525150299072
1766408800102638000,1.31563818359375,-0.18875980377197266,2.175459861755371,1.7540216445922852
1766408800112640300,1.32564013671875,0.3673095703125,1.514502763748169,1.381690263748169
1766408800122643000,1.335642822265625,0.8300933837890625,0.43649744987487793,1.1452925205230713
1766408800132645400,1.345645263671875,0.5532112121582031,-0.05778813362121582,1.1139147281646729
1766408800142647800,1.355647705078125,0.6398162841796875,-0.14177846908569336,1.104578971862793
1766408800152650200,1.365650146484375,0.3968954086303711,-0.6429445743560791,1.635211706161499
1766408800212665000,1.4256650390625,-0.9200935363769531,0.2737758159637451,1.1766756772994995
1766408800222667500,1.43566748046875,-0.42367076873779297,0.2962977886199951,1.0339338779449463
1766408800252674800,1.4656748046875,-0.5454626083374023,0.18620824813842773,1.0057883262634277
1766408800302687500,1.5156875,-2.61665678024292,0.732060432434082,1.2254844903945923
1766408800342697500,1.555697509765625,-0.9309749603271484,0.719365119934082,1.5828285217285156
1766408800352700000,1.565699951171875,-0.3538322448730469,0.39587557315826416,1.7188224792480469
1766408800362702300,1.575702392578125,-0.13341999053955078,0.4465731382369995,1.6995714902877808
1766408800372704800,1.585704833984375,-0.37946224212646484,0.8421992063522339,1.4397131204605103
1766408800382707200,1.595707275390625,-0.7533884048461914,1.2701879739761353,0.9377135038375854
1766408800392709600,1.605709716796875,-0.9695796966552734,1.538389801979065,0.6417605876922607
1766408800402712300,1.61571240234375,-0.8828258514404297,1.634473204612732,0.32016003131866455
1766408800412714500,1.625714599609375,-0.7727451324462891,1.6612186431884766,0.05362701416015625
1766408800422717200,1.63571728515625,-0.7626447677612305,1.6303495168685913,-0.1269831657409668
1766408800442722000,1.65572216796875,-0.8404731750488281,1.6224879026412964,0.266485333442688
1766408800462727200,1.67572705078125,-0.6069145202636719,1.8205599784851074,0.6314729452133179
1766408800472729300,1.685729248046875,-0.4057941436767578,1.8740094900131226,0.47951531410217285
1766408800482731800,1.695731689453125,-0.028237342834472656,1.992181658744812,0.11354541778564453
1766408800502737000,1.71573681640625,0.9420795440673828,1.9893850088119507,-1.0166220664978027
1766408800512739600,1.725739501953125,0.9706544876098633,1.9252756834030151,-0.7366625070571899
1766408800612764200,1.82576416015625,1.6163663864135742,0.44724345207214355,-0.1279194951057434
1766408800712789000,1.9257890625,0.16107559204101562,0.17846322059631348,-2.137969970703125
1766408800797810000,2.010809814453125,0.8537845611572266,-0.7467294931411743,0.8164029121398926
1766408800852823600,2.065823486328125,1.5465507507324219,-0.54840087890625,1.5817205905914307
1766408800867827500,2.080827392578125,0.2898101806640625,-0.8353241086006165,1.7312747240066528
1766408800877830000,2.090829833984375,-0.5734348297119141,-0.8204777240753174,1.5813610553741455
1766408800907837400,2.12083740234375,-1.9107666015625,0.5438358783721924,0.5571706295013428
1766408800917840000,2.13083984375,-1.9899306297302246,0.7988111972808838,0.1363588571548462
1766408800927842300,2.14084228515625,-2.06772518157959,0.9873356819152832,-0.29540401697158813
1766408800937844700,2.1508447265625,-2.091960906982422,1.0857951641082764,-0.5193805694580078
1766408800947847200,2.16084716796875,-1.7680177688598633,1.1843266487121582,-0.3308672308921814
1766408800957849600,2.170849609375,-1.7149977684020996,1.1983113288879395,0.030223309993743896
1766408800972853200,2.185853271484375,-1.493520736694336,0.8423976898193359,0.8174160718917847
1766408800982856000,2.19585595703125,-1.1967287063598633,0.2635061740875244,1.6661126613616943
1766408800997859600,2.210859619140625,-0.9267034530639648,0.3691837787628174,1.9530830383300781
1766408801007862000,2.220862060546875,-0.3933277130126953,0.27106404304504395,1.9109712839126587
1766408801022865700,2.23586572265625,-0.33734607696533203,0.08463454246520996,1.8738070726394653
1766408801032868000,2.2458681640625,-0.0978231430053711,-0.007938861846923828,1.6753216981887817
1766408801042870500,2.25587060546875,-0.01766204833984375,-0.005561113357543945,1.3682379722595215
1766408801057874200,2.270874267578125,-0.245635986328125,0.3601951599121094,0.8602464199066162
1766408801067876900,2.280876953125,-0.40020751953125,0.7052016258239746,0.6960062384605408
1766408801077879600,2.290879638671875,-0.2651233673095703,0.7870311737060547,0.48445725440979004
1766408801087882000,2.300882080078125,0.17652130126953125,0.6189439296722412,0.2292100191116333
1766408801097884200,2.31088427734375,0.5963115692138672,0.33829402923583984,0.15835392475128174
1766408801107886800,2.320886962890625,0.8142309188842773,0.23859691619873047,0.03770804405212402
1766408801117889300,2.33088916015625,0.7739133834838867,0.3846759796142578,-0.20740753412246704
1766408801127891700,2.3408916015625,0.5186500549316406,0.6253840923309326,-0.4507574737071991
1766408801142895400,2.355895263671875,0.17876338958740234,0.7881052494049072,-0.4813894033432007
1766408801152897800,2.365897705078125,0.266998291015625,1.0181655883789062,-0.14786261320114136
1766408801162900200,2.375900146484375,0.4085378646850586,1.00038743019104,-0.3446448743343353
1766408801187906600,2.400906494140625,0.5754861831665039,0.8568079471588135,-0.11386168003082275
1766408801207911400,2.420911376953125,0.6427526473999023,0.9938421249389648,0.013779938220977783
1766408801217913900,2.430913818359375,1.034104347229004,0.9528539180755615,0.20002257823944092
1766408801227916500,2.44091650390625,1.4573326110839844,0.7438297271728516,0.6123977899551392
1766408801237919000,2.4509189453125,1.8509864807128906,0.4981231689453125,1.1746467351913452
1766408801247921400,2.46092138671875,2.2734193801879883,0.18733859062194824,1.5178343057632446
1766408801257924000,2.470924072265625,2.6065921783447266,-0.05093026161193848,1.6477864980697632
1766408801267926300,2.48092626953125,2.442721366882324,-0.3297109603881836,1.6146070957183838
1766408801277928700,2.4909287109375,1.8374748229980469,-0.4712526798248291,1.465334415435791
1766408801287931400,2.500931396484375,1.1353073120117188,-0.32747507095336914,1.3282339572906494
1766408801297933800,2.510933837890625,0.8708381652832031,-0.10482597351074219,1.343841791152954
1766408801307936300,2.520936279296875,1.093644142150879,-0.1572856903076172,1.3210234642028809
1766408801317939000,2.53093896484375,1.4064483642578125,-0.3919243812561035,1.393052339553833
1766408801327941400,2.54094140625,1.6108131408691406,-0.6779637336730957,1.3912267684936523
1766408801337943800,2.55094384765625,1.665745735168457,-0.8459329605102539,1.3706004619598389
1766408801347946200,2.5609462890625,1.5641288757324219,-0.8965499401092529,1.3888545036315918
1766408801362950000,2.575949951171875,0.5578117370605469,-1.1502904891967773,0.8873562812805176
1766408801377953500,2.59095361328125,-0.17678070068359375,-0.8073980808258057,0.7087184190750122
1766408801387956200,2.600956298828125,-0.5317001342773438,-0.7954971790313721,0.666611909866333
1766408801397958700,2.610958740234375,-0.8624019622802734,-0.7374980449676514,0.7690039873123169
1766408801407961000,2.620961181640625,-1.0602693557739258,-0.786327600479126,0.8601359128952026
1766408801417963500,2.630963623046875,-1.2869338989257812,-0.8443906307220459,1.0115909576416016
1766408801427966000,2.640966064453125,-1.5950489044189453,-1.0070502758026123,1.0659955739974976
1766408801442969600,2.655969482421875,-1.7163095474243164,-1.2850277423858643,1.2123693227767944
1766408801457973800,2.670973876953125,-1.5213713645935059,-1.61184823513031,1.171030879020691
1766408801467976200,2.68097607421875,-1.5109434127807617,-1.8971538543701172,0.7707364559173584
1766408801477978600,2.690978515625,-1.4789414405822754,-1.9401991367340088,0.30612730979919434
1766408801487981000,2.70098095703125,-1.6463704109191895,-1.7283072471618652,-0.14632856845855713
1766408801497983500,2.7109833984375,-1.8586735725402832,-1.5835151672363281,-0.48488056659698486
1766408801507986000,2.72098583984375,-1.7735881805419922,-1.4978978633880615,-0.6966082453727722
1766408801522989800,2.73598974609375,-1.1980948448181152,-1.6013675928115845,-0.6644870638847351
1766408801532992300,2.7459921875,-0.8233566284179688,-1.602941632270813,-0.39458250999450684
1766408801542994700,2.75599462890625,-0.7272577285766602,-1.4173753261566162,-0.0095137357711792
1766408801552997000,2.7659970703125,-0.9287557601928711,-1.1762404441833496,0.12543106079101562
1766408801562999600,2.77599951171875,-1.3981118202209473,-1.2927438020706177,0.016289234161376953
1766408801573002000,2.786001953125,-1.5885114669799805,-1.1386125087738037,0.19631636142730713
1766408801588006000,2.801005859375,-1.8073244094848633,-0.762047290802002,0.34851932525634766
1766408801598008300,2.81100830078125,-1.7165865898132324,-0.4863741397857666,0.31116974353790283
1766408801608010800,2.8210107421875,-1.6186027526855469,-0.20666861534118652,0.24085211753845215
1766408801618013400,2.831013427734375,-1.6129932403564453,0.03933072090148926,0.1161954402923584
1766408801628015900,2.841015869140625,-1.6091156005859375,0.25525569915771484,0.09442424774169922
1766408801638018300,2.851018310546875,-1.5337085723876953,0.3678755760192871,0.10939037799835205
1766408801648020700,2.861020751953125,-1.4715518951416016,0.3916046619415283,0.1367189884185791
1766408801658023200,2.871023193359375,-1.3483805656433105,0.4294290542602539,0.07764387130737305
1766408801668025600,2.881025634765625,-0.8801612854003906,0.5315303802490234,0.0021355152130126953
1766408801678028300,2.8910283203125,-0.2607593536376953,0.5031468868255615,-0.06474697589874268
1766408801693032000,2.906031982421875,0.8279294967651367,0.3893859386444092,-0.271905779838562
1766408801708035600,2.92103564453125,1.4872360229492188,0.48098254203796387,-0.5819623470306396
1766408801718038000,2.9310380859375,1.7069072723388672,0.6296732425689697,-0.7968325614929199
1766408801733041700,2.946041748046875,1.9548873901367188,0.4006829261779785,-0.7807857394218445
1766408801743044000,2.956044189453125,2.0489940643310547,0.04663586616516113,-0.5264060497283936
1766408801758048000,2.971048095703125,1.9258441925048828,-0.28601574897766113,-0.07481181621551514
1766408801768050400,2.981050537109375,1.9578132629394531,-0.4287416934967041,0.12232315540313721
1766408801778052900,2.991052978515625,1.8297100067138672,-0.6369054317474365,0.3373734951019287
1766408801788055600,3.0010556640625,1.9857244491577148,-0.66796875,0.4851081371307373
1766408801798058000,3.01105810546875,2.429719924926758,-0.5461788177490234,0.4024951457977295
1766408801808060400,3.021060302734375,2.4469919204711914,-0.5749835968017578,0.2626614570617676
1766408801818062800,3.031062744140625,2.352025032043457,-0.6969563961029053,0.32240259647369385
1766408801828065300,3.041065185546875,2.320314407348633,-0.7483210563659668,0.4144507646560669
1766408801843069000,3.05606884765625,1.7384414672851562,-0.8258228302001953,0.10717010498046875
1766408801858072800,3.07107275390625,1.120701789855957,-0.8672041893005371,-0.42051881551742554
1766408801873076500,3.086076416015625,0.8064804077148438,-0.9848768711090088,-0.9334516525268555
1766408801883079000,3.096078857421875,0.7089900970458984,-1.106881856918335,-1.168529748916626
1766408801893081600,3.10608154296875,0.834050178527832,-1.1084096431732178,-1.3967646360397339
1766408801903084000,3.116083984375,1.1076345443725586,-1.0800459384918213,-1.5317113399505615
1766408801913086700,3.126086669921875,1.5077428817749023,-1.2603964805603027,-1.3715834617614746
1766408801928090400,3.14109033203125,1.8410472869873047,-1.4834389686584473,-1.0576246976852417
1766408801938092800,3.1510927734375,1.6705341339111328,-1.5532567501068115,-0.9609598517417908
1766408801948095200,3.16109521484375,1.5872526168823242,-1.4484697580337524,-1.035717248916626
1766408801958097700,3.17109765625,1.4380369186401367,-1.1847156286239624,-1.2890690565109253
1766408801968100000,3.18110009765625,0.9619655609130859,-1.0448979139328003,-1.5314114093780518
1766408801978102500,3.1911025390625,0.2544078826904297,-0.8641101121902466,-1.667171835899353
1766408801993106400,3.2061064453125,-0.723729133605957,-0.447587251663208,-1.6708167791366577
1766408802003109000,3.216109130859375,-0.8259496688842773,-0.41779088973999023,-1.5631191730499268
1766408802018112800,3.23111279296875,-0.43707942962646484,-0.45058560371398926,-1.5412014722824097
1766408802028115200,3.241115234375,-0.20920753479003906,-0.5015580654144287,-1.4037916660308838
1766408802053121500,3.26612158203125,-0.04396629333496094,-0.6353389024734497,-1.1554296016693115
1766408802063124000,3.2761240234375,-0.3099937438964844,-0.5957620143890381,-1.0503379106521606
1766408802078127900,3.2911279296875,-0.3841123580932617,-0.3407597541809082,-0.706081748008728
1766408802103134000,3.316134033203125,-0.6487283706665039,-0.13173437118530273,-0.2572460174560547
1766408802118137600,3.3311376953125,-1.146596908569336,0.09331274032592773,-0.023801743984222412
1766408802133141200,3.346141357421875,-1.3172721862792969,0.043851375579833984,-0.04854944348335266
1766408802153146400,3.366146484375,-1.865415096282959,0.2536313533782959,-0.0011948347091674805
1766408802178152400,3.39115234375,-1.931957721710205,0.36901402473449707,0.06435531377792358
1766408802188155100,3.401155029296875,-1.544013500213623,0.4196925163269043,-0.0449257493019104
1766408802198157600,3.411157470703125,-1.1580734252929688,0.32019996643066406,-0.18881067633628845
1766408802213161500,3.426161376953125,-0.5684547424316406,0.25438737869262695,-0.2619393765926361
1766408802223164000,3.436163818359375,-0.2303934097290039,0.2063884735107422,-0.21812036633491516
1766408802238167600,3.45116748046875,-0.032886505126953125,0.15590572357177734,-0.3589702844619751
1766408802248170000,3.461169921875,0.07776355743408203,0.180084228515625,-0.33445262908935547
1766408802258172700,3.471172607421875,0.16547107696533203,0.16420888900756836,-0.17455852031707764
1766408802273176600,3.486176513671875,0.45978450775146484,0.2711038589477539,-0.0013384819030761719
1766408802283179000,3.496178955078125,0.6262598037719727,0.41890382766723633,0.07973384857177734
1766408802298182700,3.5111826171875,0.4026670455932617,0.6957018375396729,0.18257302045822144
1766408802308185000,3.52118505859375,0.1408376693725586,0.932908296585083,0.18239587545394897
1766408802318187800,3.531187744140625,-0.08214569091796875,1.1402294635772705,0.20534855127334595
1766408802328190200,3.541190185546875,-0.1938934326171875,1.222168207168579,0.27419573068618774
1766408802338192600,3.551192626953125,-0.2112417221069336,1.1844227313995361,0.22208118438720703
1766408802348195000,3.561195068359375,-0.17172622680664062,1.1006760597229004,-0.015891611576080322
1766408802363198700,3.57619873046875,0.1134786605834961,0.8498344421386719,-0.24790990352630615
1766408802378202600,3.59120263671875,0.37519073486328125,0.5982975959777832,-0.33960336446762085
1766408802388205000,3.601205078125,0.34026432037353516,0.31238365173339844,-0.1166006326675415
1766408802398207500,3.61120751953125,0.17827224731445312,0.013249397277832031,0.09182572364807129
1766408802408210200,3.621210205078125,-0.024700164794921875,-0.15601325035095215,0.3225908875465393
1766408802418212600,3.631212646484375,-0.1617441177368164,-0.2231743335723877,0.579797625541687
1766408802428215000,3.641215087890625,-0.39783477783203125,-0.3942537307739258,0.7679036855697632
1766408802438217500,3.651217529296875,-0.8521614074707031,-0.42755866050720215,0.9241620302200317
1766408802448220200,3.66122021484375,-1.375476360321045,-0.43831324577331543,1.0103687047958374
1766408802458222300,3.671222412109375,-1.4492063522338867,-0.46245765686035156,1.071609616279602
1766408802473226200,3.686226318359375,0.20670700073242188,-0.6419003009796143,0.9781903028488159
1766408802483229000,3.69622900390625,1.7279481887817383,-0.7797958850860596,0.7950851917266846
1766408802493231400,3.7062314453125,2.7744531631469727,-0.849669337272644,0.7723886966705322
1766408802508235000,3.721235107421875,3.162257194519043,-1.2004445791244507,0.8304190635681152
1766408802518237400,3.731237548828125,2.6417016983032227,-1.3299779891967773,0.7214633226394653
1766408802528239900,3.741239990234375,1.6385822296142578,-1.2613030672073364,0.864809513092041
1766408802543243800,3.756243896484375,0.12053298950195312,-0.8495105504989624,1.273231863975525
1766408802553246200,3.76624609375,-0.5947847366333008,-0.5987135171890259,1.3091961145401
1766408802563249000,3.776248779296875,-0.9524316787719727,-0.4743044376373291,1.23428213596344
1766408802573251300,3.786251220703125,-0.9625358581542969,-0.46021246910095215,1.1142090559005737
1766408802588255000,3.8012548828125,-0.42288780212402344,-0.37137722969055176,0.7280304431915283
1766408802598257400,3.81125732421875,0.14652156829833984,-0.3583946228027344,0.4371309280395508
1766408802613261300,3.82626123046875,0.8594799041748047,-0.7030665874481201,0.2996937036514282
1766408802623263700,3.836263671875,1.191838264465332,-1.01292085647583,0.3789787292480469
1766408802633266200,3.84626611328125,1.2103137969970703,-1.1230782270431519,0.5563114881515503
1766408802648270000,3.86127001953125,0.8400154113769531,-1.1447371244430542,0.6711561679840088
1766408802658272500,3.8712724609375,0.4436368942260742,-1.1159520149230957,0.5046639442443848
1766408802668275200,3.881275146484375,-0.02236461639404297,-1.0314016342163086,0.31584346294403076
1766408802678277600,3.891277587890625,-0.25180530548095703,-0.8826894760131836,0.23316621780395508
1766408802688280000,3.901280029296875,-0.18914222717285156,-0.7393894195556641,0.2726706266403198
1766408802698282500,3.911282470703125,-0.00122833251953125,-0.6261259317398071,0.4183136224746704
1766408802708285000,3.921284912109375,0.16891860961914062,-0.46146488189697266,0.6077605485916138
1766408802718287600,3.93128759765625,0.02416706085205078,-0.38651061058044434,0.6475092172622681
1766408802733291300,3.946291259765625,-0.7120037078857422,-0.20613300800323486,0.619648814201355
1766408802748295200,3.961295166015625,-1.687330722808838,0.16070127487182617,0.48440849781036377
1766408802758297600,3.971297607421875,-2.2817764282226562,0.39010095596313477,0.22548389434814453
1766408802768300000,3.981300048828125,-2.451857566833496,0.5462996959686279,0.07347226142883301
1766408802788305200,4.00130517578125,-1.9496393203735352,0.6809475421905518,-0.04929518699645996
1766408802798307600,4.0113076171875,-1.5285210609436035,0.6791067123413086,-0.02620244026184082
1766408802808310000,4.02131005859375,-0.8265104293823242,0.7136890888214111,-0.11170816421508789
1766408802818312700,4.031312744140625,-0.04908466339111328,0.6895313262939453,-0.15756726264953613
1766408802828315100,4.041315185546875,0.5754661560058594,0.5776524543762207,0.03200721740722656
1766408802838317600,4.051317626953125,0.9193582534790039,0.35898470878601074,0.3194575309753418
1766408802848320300,4.0613203125,1.0478630065917969,0.23494958877563477,0.5040931701660156
1766408802858322700,4.07132275390625,1.1097612380981445,0.21325182914733887,0.6283742189407349
1766408802868325000,4.0813251953125,0.9870090484619141,0.12388873100280762,0.6568499803543091
1766408802888330200,4.101330322265625,0.4321260452270508,0.35974574089050293,0.6563583612442017
1766408802903334100,4.116334228515625,0.047438621520996094,0.47857117652893066,0.49552178382873535
1766408802918337800,4.131337890625,0.1181039810180664,0.3934495449066162,0.2809675931930542
1766408802928340200,4.14134033203125,0.20931625366210938,0.24437403678894043,0.19180524349212646
1766408802938343000,4.151343017578125,0.5397729873657227,0.12805867195129395,0.09783196449279785
1766408802948345300,4.161345458984375,1.146906852722168,0.08640837669372559,-0.1537935733795166
1766408802963349000,4.176348876953125,1.9859323501586914,-0.06534576416015625,-0.2948485016822815
1766408802973351700,4.1863515625,2.3047733306884766,-0.09484148025512695,-0.19452381134033203
1766408802988355300,4.201355224609375,1.9385318756103516,-0.26699256896972656,-0.19091683626174927
1766408802998357800,4.211357666015625,1.3547258377075195,-0.41221070289611816,-0.24814099073410034
1766408803008360400,4.2213603515625,0.8423538208007812,-0.5033564567565918,-0.4663201570510864
1766408803018363000,4.23136279296875,0.4848508834838867,-0.5047659873962402,-0.8244333267211914
1766408803028365300,4.241365234375,0.5412092208862305,-0.3493618965148926,-1.2332087755203247
1766408803038368000,4.251367919921875,0.8098964691162109,-0.19283676147460938,-1.6189486980438232
1766408803053371600,4.26637158203125,1.2025413513183594,-0.16258788108825684,-2.0203304290771484
1766408803068375600,4.28137548828125,1.4584789276123047,-0.3950643539428711,-1.8683356046676636
1766408803088380400,4.30138037109375,1.364126205444336,-0.4444081783294678,-1.3360838890075684
1766408803098382800,4.3113828125,0.9471836090087891,-0.5359063148498535,-1.2519038915634155
1766408803113386800,4.32638671875,0.3148365020751953,-0.5483386516571045,-1.0406792163848877
1766408803123389200,4.33638916015625,0.08794212341308594,-0.6214981079101562,-1.0067451000213623
1766408803133392000,4.346391845703125,0.0034008026123046875,-0.8871089220046997,-1.1974010467529297
1766408803143394300,4.356394287109375,0.09296989440917969,-1.0854612588882446,-1.3734945058822632
1766408803158398000,4.37139794921875,0.4003152847290039,-1.0197885036468506,-1.4845561981201172
1766408803168400400,4.381400390625,0.546290397644043,-1.089022159576416,-1.4492841958999634
1766408803178403000,4.391403076171875,0.6275205612182617,-1.1234371662139893,-1.289311170578003
1766408803188405800,4.40140576171875,0.4625730514526367,-1.0384705066680908,-1.217462182044983
1766408803198408200,4.411408203125,0.09165191650390625,-0.7450904846191406,-1.1235154867172241
1766408803208410600,4.42141064453125,-0.4622955322265625,-0.43166089057922363,-1.0821032524108887
1766408803218413000,4.4314130859375,-0.9883928298950195,-0.1911458969116211,-1.23471999168396
1766408803228415700,4.441415771484375,-1.2625465393066406,-0.07672262191772461,-1.3481559753417969
1766408803238418400,4.45141845703125,-1.2175397872924805,-0.060543060302734375,-1.262253999710083
1766408803253422000,4.466422119140625,-0.6148738861083984,-0.037276268005371094,-0.9628781080245972
1766408803268425700,4.48142578125,0.11124706268310547,-0.003840208053588867,-0.6881805658340454
1766408803283429600,4.4964296875,-0.10728168487548828,-0.015208005905151367,-0.3468626141548157
1766408803293432300,4.506432373046875,-0.8024873733520508,0.027008533477783203,-0.02784678339958191
1766408803308436000,4.52143603515625,-1.771061897277832,0.03548002243041992,0.4795820415019989
1766408803318438400,4.5314384765625,-2.1813573837280273,-0.0036468505859375,0.6394302248954773
1766408803333442000,4.546442138671875,-2.5449681282043457,0.06062769889831543,0.6858158707618713
1766408803348446000,4.561446044921875,-2.428771495819092,0.2787759304046631,0.5786184072494507
1766408803358448400,4.571448486328125,-2.114490032196045,0.39573049545288086,0.44232138991355896
1766408803373452300,4.586452392578125,-1.7295408248901367,0.4986145496368408,0.2577281594276428
1766408803388456000,4.6014560546875,-1.3179988861083984,0.5336697101593018,0.113143190741539
1766408803398458600,4.611458740234375,-1.036421775817871,0.4450054168701172,0.12481933832168579
1766408803408461000,4.6214609375,-0.6341333389282227,0.39713215827941895,0.14354032278060913
1766408803418463500,4.63146337890625,-0.14895057678222656,0.34770727157592773,0.15556475520133972
1766408803428466000,4.6414658203125,0.22119903564453125,0.27411627769470215,0.20125773549079895
1766408803438468600,4.651468505859375,0.3854703903198242,0.2949554920196533,0.18163898587226868
1766408803453472500,4.666472412109375,0.4173574447631836,0.6294357776641846,0.2299170196056366
1766408803468476200,4.68147607421875,0.5781764984130859,0.9685587882995605,0.1615186333656311
1766408803478478600,4.691478515625,0.7455873489379883,1.221541166305542,0.150156170129776
1766408803488481300,4.701481201171875,0.9331998825073242,1.389925241470337,0.16505959630012512
1766408803498483700,4.711483642578125,1.0649614334106445,1.424811840057373,0.2033977508544922
1766408803508486400,4.721486328125,0.9366378784179688,1.3440001010894775,0.2001415193080902
1766408803518488800,4.73148876953125,0.648280143737793,1.2703847885131836,0.09059140086174011
1766408803528491300,4.7414912109375,0.2501659393310547,1.1508421897888184,-0.10153299570083618
1766408803538493700,4.75149365234375,-0.03800487518310547,1.0110960006713867,-0.3526603579521179
1766408803548496400,4.761496337890625,0.07862281799316406,0.8769969940185547,-0.5605618953704834
1766408803558498800,4.771498779296875,0.6716394424438477,0.6896567344665527,-0.6119306087493896
1766408803568501200,4.781501220703125,1.4091310501098633,0.545982837677002,-0.3113842010498047
1766408803578504000,4.79150390625,1.905562400817871,0.4696958065032959,0.07923978567123413
1766408803593507800,4.8065078125,2.0810766220092773,0.5949428081512451,0.607600212097168
1766408803608511500,4.821511474609375,1.6283035278320312,0.7581591606140137,0.7063467502593994
1766408803623515100,4.83651513671875,0.7659797668457031,0.8290543556213379,0.8044158816337585
1766408803633517800,4.846517822265625,-0.05715370178222656,0.8263823986053467,0.951533854007721
1766408803648521500,4.861521484375,-0.6989908218383789,0.6204323768615723,1.0691640377044678
1766408803658524200,4.871524169921875,-0.49190425872802734,0.35561442375183105,1.0492522716522217
1766408803673527800,4.88652783203125,0.32883262634277344,-0.08452010154724121,1.0486767292022705
1766408803683530500,4.896530517578125,0.8363361358642578,-0.3303847312927246,1.1280711889266968
1766408803693533000,4.906532958984375,1.128718376159668,-0.5320463180541992,1.2346665859222412
1766408803708536800,4.921536865234375,1.1475038528442383,-0.7268838882446289,1.423448920249939
1766408803718539300,4.931539306640625,0.7758693695068359,-0.8135874271392822,1.4477765560150146
1766408803728542000,4.9415419921875,0.36313629150390625,-0.7914659976959229,1.4374165534973145
1766408803738544400,4.95154443359375,-0.1583852767944336,-0.7696847915649414,1.3424428701400757
1766408803748547000,4.961547119140625,-0.6409788131713867,-0.7385838031768799,1.2968500852584839
1766408803763550700,4.97655078125,-0.9540538787841797,-0.7133815288543701,1.194608211517334
1766408803773553400,4.986553466796875,-0.963348388671875,-0.7713561058044434,1.0147476196289062
1766408803788557000,5.00155712890625,-0.5868005752563477,-0.8202846050262451,0.6299664974212646
1766408803798559500,5.0115595703125,-0.23442459106445312,-0.8380546569824219,0.4239387512207031
1766408803808562000,5.02156201171875,0.166168212890625,-0.8736846446990967,0.21141719818115234
1766408803823565800,5.03656591796875,0.591618537902832,-0.9243876934051514,0.008663415908813477
1766408803833568500,5.046568603515625,0.597743034362793,-0.9740424156188965,-0.02677786350250244
1766408803843571000,5.056571044921875,0.3015584945678711,-0.9533398151397705,0.012710094451904297
1766408803853573400,5.066573486328125,-0.044877052307128906,-0.8792634010314941,0.11932075023651123
1766408803863576000,5.076576171875,-0.31467437744140625,-0.8461017608642578,0.23492908477783203
1766408803873578500,5.08657861328125,-0.5054922103881836,-0.8306432962417603,0.29773032665252686
1766408803883581200,5.096581298828125,-0.7267313003540039,-0.713660717010498,0.38483381271362305
1766408803893583600,5.10658349609375,-0.9648351669311523,-0.48142528533935547,0.47484850883483887
1766408803903586300,5.11658642578125,-1.2101411819458008,-0.19188928604125977,0.4848291873931885
1766408803913588700,5.126588623046875,-1.4783587455749512,0.09704136848449707,0.3511044979095459
1766408803923591200,5.136591064453125,-1.843902587890625,0.2928605079650879,0.12942993640899658
1766408803933593600,5.146593505859375,-2.067922592163086,0.4950709342956543,-0.04396188259124756
1766408803943596300,5.15659619140625,-2.0314369201660156,0.6255643367767334,-0.17309355735778809
1766408803953598700,5.1665986328125,-1.7605490684509277,0.6380233764648438,-0.23224103450775146
1766408803963601400,5.176601318359375,-1.3773736953735352,0.554802417755127,-0.1522303819656372
1766408803973603800,5.186603759765625,-1.1145992279052734,0.45368027687072754,-0.008884787559509277
1766408803983606500,5.1966064453125,-0.9274806976318359,0.465620756149292,0.13781523704528809
1766408803993609000,5.20660888671875,-0.9464130401611328,0.552832841873169,0.2531013488769531
1766408804003611600,5.216611572265625,-1.1476001739501953,0.6731138229370117,0.31593334674835205
1766408804013614000,5.226614013671875,-1.1684064865112305,0.7639341354370117,0.39965927600860596
1766408804023616500,5.236616455078125,-1.074204444885254,0.799250602722168,0.35533249378204346
1766408804033619200,5.246619140625,-0.7588214874267578,0.7724075317382812,0.25073790550231934
1766408804043621600,5.25662158203125,-0.42137908935546875,0.7592868804931641,0.11323583126068115
1766408804053624000,5.2666240234375,-0.08145427703857422,0.8466169834136963,-0.029922127723693848
1766408804063626800,5.276626708984375,0.1810293197631836,0.9264187812805176,-0.17130643129348755
1766408804073629400,5.28662939453125,0.41675758361816406,0.9326047897338867,-0.23885661363601685
1766408804088633000,5.301633056640625,0.7215814590454102,0.9712224006652832,-0.12888270616531372
1766408804098635500,5.311635498046875,0.6504087448120117,0.867142915725708,0.022607862949371338
1766408804113639400,5.326639404296875,0.47423458099365234,0.6876063346862793,0.031388282775878906
1766408804133644500,5.34664453125,0.5443553924560547,0.4597446918487549,-0.3229254484176636
1766408804143647200,5.356647216796875,0.8257646560668945,0.37070536613464355,-0.40862205624580383
1766408804153649700,5.366649658203125,1.3202905654907227,0.39695262908935547,-0.3725496828556061
1766408804163652000,5.376652099609375,1.7892236709594727,0.39354848861694336,-0.3108026087284088
1766408804173654500,5.386654541015625,1.9339561462402344,0.2514822483062744,-0.33724334836006165
1766408804188658400,5.401658447265625,1.4718828201293945,0.13535284996032715,-0.30376437306404114
1766408804198661000,5.4116611328125,1.1066322326660156,0.1400601863861084,-0.39809632301330566
1766408804208663600,5.42166357421875,0.9353475570678711,0.023079395294189453,-0.7514986991882324
1766408804218666200,5.431666259765625,1.0161657333374023,-0.14960765838623047,-1.1422693729400635
1766408804228668700,5.441668701171875,1.350295066833496,-0.18737459182739258,-1.3825074434280396
1766408804238671000,5.451671142578125,1.7684450149536133,-0.33644723892211914,-1.6626107692718506
1766408804248673500,5.461673583984375,2.0089845657348633,-0.46557188034057617,-1.8131687641143799
1766408804263677400,5.476677490234375,2.409665107727051,-0.7417178153991699,-1.897501826286316
1766408804278681300,5.491681396484375,2.8131284713745117,-0.9903162717819214,-1.7346543073654175
1766408804293685000,5.50668505859375,2.7913341522216797,-1.1235363483428955,-1.3775821924209595
1766408804303687700,5.516687744140625,2.3667783737182617,-1.0687726736068726,-1.1856310367584229
1766408804313690000,5.526690185546875,1.6823301315307617,-0.9773821830749512,-1.0719482898712158
1766408804323692800,5.53669287109375,1.0096626281738281,-0.8824350833892822,-1.0525718927383423
1766408804333695500,5.546695556640625,0.484588623046875,-0.8148336410522461,-1.115063190460205
1766408804348699100,5.56169921875,0.11719703674316406,-0.7439032793045044,-1.3433504104614258
1766408804358701600,5.57170166015625,0.10712718963623047,-0.7532024383544922,-1.4881421327590942
1766408804368704000,5.5817041015625,-0.05059623718261719,-0.7558600902557373,-1.5302001237869263
1766408804383708000,5.5967080078125,-0.4736804962158203,-0.5906951427459717,-1.2240852117538452
1766408804393710600,5.606710693359375,-0.7734346389770508,-0.4476531744003296,-1.0009958744049072
1766408804408714500,5.621714599609375,-1.321303367614746,-0.1620655059814453,-0.8926454782485962
1766408804428719400,5.64171923828125,-1.8417539596557617,-0.06630539894104004,-0.8369940519332886
1766408804438721800,5.6517216796875,-1.9508576393127441,-0.09513688087463379,-0.736081600189209
1766408804448724500,5.661724365234375,-1.8672504425048828,-0.13423633575439453,-0.5809817910194397
1766408804458727200,5.67172705078125,-1.6312775611877441,-0.19130206108093262,-0.36431464552879333
1766408804468729600,5.6817294921875,-1.3205375671386719,-0.27117466926574707,-0.18478186428546906
1766408804483733500,5.6967333984375,-0.9132328033447266,-0.33095836639404297,0.09075561165809631
1766408804498737200,5.711737060546875,-0.6622123718261719,-0.27366089820861816,0.3105517029762268
1766408804513741300,5.7267412109375,-1.041977882385254,-0.1268329620361328,0.4032456874847412
1766408804523743700,5.73674365234375,-1.4902420043945312,0.027137041091918945,0.3640941381454468
1766408804533746200,5.74674609375,-1.8295021057128906,0.15692710876464844,0.3756272792816162
1766408804548750000,5.76175,-1.914811134338379,0.2599022388458252,0.3877395987510681
1766408804558752800,5.771752685546875,-1.7389941215515137,0.35228538513183594,0.4419947862625122
1766408804568755200,5.781755126953125,-1.357879638671875,0.46564197540283203,0.5051475763320923
1766408804578757600,5.791757568359375,-1.0853261947631836,0.599071741104126,0.5319198369979858
1766408804593761500,5.806761474609375,-0.8774490356445312,0.8508114814758301,0.3535461127758026
1766408804608765400,5.821765380859375,-0.6367168426513672,1.0758183002471924,0.011232763528823853
1766408804623769300,5.836769287109375,-0.4353189468383789,1.086845874786377,-0.16918854415416718
1766408804633771800,5.846771728515625,-0.37570667266845703,0.9908132553100586,-0.11320644617080688
1766408804648775700,5.861775634765625,-0.11957263946533203,0.8589930534362793,0.19550257921218872
1766408804663779600,5.876779541015625,0.3155937194824219,0.7509639263153076,0.45771557092666626
1766408804673782000,5.886781982421875,0.5887575149536133,0.7900257110595703,0.6350553631782532
1766408804683784400,5.896784423828125,0.6746091842651367,0.768744945526123,0.7441721558570862
1766408804693787100,5.906787109375,0.712646484375,0.8295300006866455,0.8676581978797913
1766408804703789800,5.916789794921875,0.6123323440551758,0.9113926887512207,0.9039806723594666
1766408804713792300,5.926792236328125,0.49585628509521484,0.9115204811096191,0.8585960268974304
1766408804728796200,5.941796142578125,0.47200679779052734,0.7967681884765625,0.6828664541244507
1766408804738798600,5.951798583984375,0.5267925262451172,0.5809381008148193,0.5621569752693176
1766408804748801300,5.96180126953125,0.7884922027587891,0.4167060852050781,0.5331206917762756
1766408804763805200,5.97680517578125,1.3965940475463867,0.23366117477416992,0.6531354784965515
1766408804773807600,5.9868076171875,1.7372617721557617,0.1531999111175537,0.7517461776733398
1766408804788811500,6.0018115234375,2.033968925476074,0.03965950012207031,1.0641539096832275
1766408804798814000,6.01181396484375,2.0655288696289062,-0.00024199485778808594,1.2731860876083374
1766408804808816600,6.021816650390625,1.8908214569091797,0.09361577033996582,1.4269087314605713
1766408804823820300,6.0368203125,1.4794244766235352,0.3756883144378662,1.4498889446258545
1766408804833823000,6.046822998046875,1.2853822708129883,0.47408366203308105,1.2767596244812012
1766408804843825400,6.056825439453125,1.1619977951049805,0.34036803245544434,1.103586196899414
1766408804853827800,6.066827880859375,1.1865358352661133,0.20870590209960938,1.001711130142212
1766408804863830500,6.07683056640625,1.536982536315918,0.18083429336547852,0.9332212805747986
1766408804873833000,6.0868330078125,1.8663740158081055,0.009295940399169922,0.9062958359718323
1766408804888837000,6.101837158203125,2.077456474304199,-0.35057520866394043,1.1049326658248901
1766408804903840800,6.1168408203125,1.6030216217041016,-0.7351783514022827,1.4285502433776855
1766408804918844400,6.131844482421875,0.7234315872192383,-1.0399600267410278,1.5181217193603516
1766408804933848300,6.146848388671875,-0.25977039337158203,-1.033570408821106,1.5683631896972656
1766408804958855000,6.17185498046875,-1.3985509872436523,-0.7444912195205688,1.3200955390930176
1766408804968857300,6.181857421875,-1.7014102935791016,-0.6676967144012451,1.076212763786316
1766408804983861000,6.196861083984375,-1.756223201751709,-0.7047034502029419,0.8274202346801758
1766408805003866000,6.2168662109375,-0.9902172088623047,-1.024951696395874,0.7284061908721924
1766408805013868800,6.226868896484375,-0.5434846878051758,-1.1734888553619385,0.5083417892456055
1766408805023871500,6.23687158203125,-0.22723770141601562,-1.2055842876434326,0.3931010961532593
1766408805038875100,6.251875244140625,0.06361865997314453,-1.0561301708221436,0.1979745626449585
1766408805048877600,6.261877685546875,-0.027179718017578125,-0.9718743562698364,-0.048624277114868164
1766408805063881500,6.276881591796875,-0.4333639144897461,-0.8288811445236206,-0.3077787756919861
1766408805073884200,6.28688427734375,-0.7482118606567383,-0.7781871557235718,-0.22126901149749756
1766408805088888000,6.30188818359375,-1.0811805725097656,-0.8306896686553955,0.14929425716400146
1766408805108893000,6.321892822265625,-1.2265806198120117,-0.6777969598770142,0.6750448942184448
1766408805118895600,6.3318955078125,-1.3767890930175781,-0.48200297355651855,0.7258396148681641
1766408805133899500,6.3468994140625,-1.6438078880310059,-0.15331101417541504,0.592228889465332
1766408805148903400,6.3619033203125,-1.85774564743042,0.25832557678222656,0.35122478008270264
1766408805158905900,6.37190576171875,-1.915086269378662,0.47342705726623535,0.1353219747543335
1766408805168908300,6.381908203125,-1.8531746864318848,0.6284501552581787,-0.05542135238647461
1766408805183912400,6.396912353515625,-1.6033835411071777,0.6501872539520264,-0.1513761281967163
1766408805193915000,6.406914794921875,-1.2264518737792969,0.5722746849060059,0.10354316234588623
1766408805203917300,6.416917236328125,-0.6506528854370117,0.5502438545227051,0.28787219524383545
1766408805218921500,6.43192138671875,-0.09987735748291016,0.5920064449310303,0.3504992723464966
1766408805228924000,6.441923828125,0.036121368408203125,0.7702445983886719,0.2850813865661621
1766408805238926300,6.45192626953125,0.06139373779296875,0.9261429309844971,0.1173785924911499
1766408805253930200,6.46693017578125,0.1087789535522461,1.0709903240203857,-0.1728804111480713
1766408805278936800,6.491936767578125,0.4087657928466797,1.0154118537902832,-0.4119296669960022
1766408805288939300,6.501939208984375,0.6243038177490234,1.0315213203430176,-0.3020102381706238
1766408805303943000,6.51694287109375,0.6449308395385742,0.731719970703125,0.027032017707824707
1766408805313945600,6.526945556640625,0.5896444320678711,0.611518383026123,0.234491229057312
1766408805323948300,6.5369482421875,0.5559310913085938,0.48749709129333496,0.33129584789276123
1766408805333950700,6.54695068359375,0.5248994827270508,0.30893397331237793,0.35792505741119385
1766408805343953400,6.556953369140625,0.6250524520874023,0.23991775512695312,0.34669435024261475
1766408805353955800,6.566955810546875,0.8440933227539062,0.26374101638793945,0.463329553604126
1766408805363958500,6.57695849609375,1.0541439056396484,0.2502131462097168,0.4902878999710083
1766408805378962200,6.591962158203125,1.2644996643066406,0.08358311653137207,0.041615962982177734
1766408805388964900,6.60196484375,1.3966760635375977,0.0006301403045654297,-0.35404443740844727
1766408805398967600,6.611967529296875,1.555680274963379,-0.03130173683166504,-0.732604444026947
1766408805408970000,6.621969970703125,1.6569833755493164,0.0031256675720214844,-1.1048039197921753
1766408805423974000,6.636973876953125,1.6767406463623047,-0.0955350399017334,-1.5629780292510986
1766408805433976300,6.646976318359375,1.8960647583007812,-0.1434345245361328,-1.646740436553955
1766408805443979000,6.65697900390625,2.2267208099365234,-0.19604945182800293,-1.4947230815887451
1766408805458983000,6.67198291015625,2.5545129776000977,-0.4287194013595581,-1.3361763954162598
1766408805473986600,6.686986572265625,2.3932409286499023,-0.5988497734069824,-1.2984284162521362
1766408805483989000,6.696989013671875,2.09285831451416,-0.5828317403793335,-1.195361614227295
1766408805493991700,6.70699169921875,1.7271184921264648,-0.4445340633392334,-1.1417031288146973
1766408805503994000,6.716994140625,1.2687196731567383,-0.31421470642089844,-1.2301280498504639
1766408805513997000,6.7269970703125,0.7999887466430664,-0.27219855785369873,-1.250517725944519
1766408805523999500,6.73699951171875,0.6837863922119141,-0.307178258895874,-1.3064247369766235
1766408805534002000,6.747001953125,1.120560646057129,-0.4553036689758301,-1.3470555543899536
1766408805544004600,6.757004638671875,1.5322961807250977,-0.7809251546859741,-1.3881595134735107
1766408805559008500,6.772008544921875,1.6496973037719727,-1.134983777999878,-1.1685841083526611
1766408805569011000,6.782010986328125,1.3917226791381836,-1.1669203042984009,-0.8681176900863647
1766408805584014800,6.797014892578125,0.35384654998779297,-1.03285551071167,-0.6727883815765381
1766408805599018800,6.812018798828125,-0.6701726913452148,-0.6995432376861572,-0.5827120542526245
1766408805614022700,6.827022705078125,-1.5357284545898438,-0.3476468324661255,-0.6663415431976318
1766408805624025000,6.837025146484375,-1.7812271118164062,-0.16176676750183105,-0.7035497426986694
1766408805639029200,6.852029296875,-1.7873754501342773,-0.06920194625854492,-0.6714270114898682
1766408805649031700,6.86203173828125,-1.770766258239746,-0.08955836296081543,-0.48677530884742737
1766408805659034000,6.8720341796875,-1.5918827056884766,-0.13683724403381348,-0.3232804238796234
1766408805669036800,6.882036865234375,-1.345855712890625,-0.2324683666229248,-0.2454795390367508
1766408805679039200,6.892039306640625,-1.2326936721801758,-0.22063744068145752,-0.09904864430427551
1766408805689042000,6.9020419921875,-1.4242382049560547,-0.17076969146728516,0.11880680918693542
1766408805699044400,6.91204443359375,-1.6382546424865723,-0.0593714714050293,0.38217854499816895
1766408805709047000,6.922047119140625,-1.9631237983703613,-0.1279153823852539,0.5634851455688477
1766408805729052200,6.94205224609375,-2.1270909309387207,-0.0888969898223877,0.44875192642211914
1766408805739054600,6.9520546875,-3.023956298828125,0.1315631866455078,0.4606093168258667
1766408805749057000,6.96205712890625,-2.706515312194824,0.37337827682495117,0.38291382789611816
1766408805759059700,6.972059814453125,-2.195709228515625,0.29367947578430176,0.11158633232116699
1766408805774063600,6.987063720703125,-1.180924415588379,0.20873618125915527,-0.3493856191635132
1766408805789067500,7.002067626953125,-0.4266185760498047,0.3440361022949219,0.03187447786331177
1766408805804071200,7.0170712890625,-0.36104488372802734,0.07271289825439453,0.4921014904975891
1766408805814073900,7.027073974609375,-0.4017353057861328,-0.024580001831054688,0.8508965969085693
1766408805824076300,7.037076171875,-0.23271751403808594,0.18211579322814941,0.9575234651565552
1766408805834079000,7.047078857421875,0.07400894165039062,0.47678112983703613,0.6714937686920166
1766408805849083000,7.062082763671875,0.7925014495849609,0.8000528812408447,0.38203567266464233
1766408805859085300,7.072085205078125,1.4313592910766602,1.0755712985992432,0.22435122728347778
1766408805869088000,7.082087890625,1.6797523498535156,1.1902248859405518,0.2296186089515686
1766408805884092000,7.097091796875,1.4880666732788086,1.2044570446014404,0.35003554821014404
1766408805899095800,7.112095703125,0.9425544738769531,1.3828299045562744,0.4552033543586731
1766408805909098500,7.122098388671875,0.5729703903198242,1.3759546279907227,0.257449746131897
1766408805919101000,7.132100830078125,0.2725362777709961,1.3277528285980225,0.15191590785980225
1766408805929103600,7.142103515625,0.209442138671875,1.277818202972412,0.04118776321411133
1766408805944107300,7.157107177734375,0.5769033432006836,0.9285063743591309,0.1031259298324585
1766408805954110000,7.16710986328125,1.1479005813598633,0.6140062808990479,0.3079456090927124
1766408805964112600,7.177112548828125,1.6772212982177734,0.28778529167175293,0.6494264602661133
1766408805974115000,7.187114990234375,1.8634862899780273,0.06285595893859863,1.0287752151489258
1766408805989119000,7.202118896484375,1.7751731872558594,0.04443621635437012,1.3762542009353638
1766408805999121400,7.212121337890625,1.6352663040161133,0.01826024055480957,1.4644931554794312
1766408806009124000,7.2221240234375,1.6010198593139648,0.017645835876464844,1.5018430948257446
1766408806019126800,7.232126708984375,1.4649276733398438,0.11305642127990723,1.5269187688827515
1766408806029129200,7.242129150390625,1.0806922912597656,0.2842693328857422,1.5273027420043945
1766408806039132000,7.2521318359375,0.4365367889404297,0.41039609909057617,1.2883795499801636
1766408806049134300,7.26213427734375,-0.15642642974853516,0.4427504539489746,0.881064772605896
1766408806064138000,7.277137939453125,-0.1359233856201172,0.3643648624420166,0.22160124778747559
1766408806084143400,7.297143310546875,0.7473659515380859,-0.09956073760986328,0.066428542137146
1766408806094146000,7.30714599609375,1.1060638427734375,-0.38059234619140625,0.31069040298461914
1766408806104148500,7.3171484375,1.1143560409545898,-0.7177152633666992,0.7073107957839966
1766408806114151000,7.32715087890625,0.9997758865356445,-0.8813803195953369,1.110002875328064
1766408806124153600,7.337153564453125,0.8411312103271484,-0.966594934463501,1.357775330543518
1766408806139157500,7.352157470703125,0.38907909393310547,-1.1277753114700317,1.4351602792739868
1766408806149160200,7.36216015625,0.16086864471435547,-1.160665512084961,1.4212783575057983
1766408806164163800,7.377163818359375,-0.036477088928222656,-1.0852336883544922,1.235092282295227
1766408806179167700,7.392167724609375,-0.08956050872802734,-0.9753748178482056,0.9038405418395996
1766408806189170400,7.40217041015625,-0.01969146728515625,-0.948918342590332,0.6642993688583374
1766408806199172900,7.4121728515625,0.18412208557128906,-0.928375244140625,0.450228214263916
1766408806209175600,7.422175537109375,0.2639608383178711,-0.8896139860153198,0.31739330291748047
1766408806219178000,7.432177978515625,0.18462181091308594,-0.8308863639831543,0.2710682153701782
1766408806229180400,7.442180419921875,0.1893014907836914,-0.7723879814147949,0.20393848419189453
1766408806239183000,7.45218310546875,0.060952186584472656,-0.7957464456558228,0.13479995727539062
1766408806249185800,7.462185791015625,-0.34743404388427734,-0.9052103757858276,0.16204631328582764
1766408806259188500,7.4721884765625,-0.7245063781738281,-0.8950232267379761,0.32898497581481934
1766408806269191000,7.48219091796875,-1.0771093368530273,-0.8504358530044556,0.41816020011901855
1766408806279193300,7.492193359375,-1.390934944152832,-0.7605555057525635,0.4438987970352173
1766408806289195800,7.50219580078125,-1.5946621894836426,-0.6893961429595947,0.4163939952850342
1766408806304200000,7.517199951171875,-1.6376333236694336,-0.6421816349029541,0.5237876176834106
1766408806314202400,7.527202392578125,-1.7052793502807617,-0.6077609062194824,0.5491338968276978
1766408806324205000,7.537205078125,-1.853196620941162,-0.4866805076599121,0.4428369998931885
1766408806349211600,7.562211669921875,-1.8634510040283203,0.2149980068206787,-0.00745236873626709
1766408806364215300,7.57721533203125,-1.8128795623779297,0.48047518730163574,-0.03970050811767578
1766408806374218000,7.587218017578125,-1.6565961837768555,0.5074360370635986,-0.18439698219299316
1766408806384220700,7.597220703125,-1.5685992240905762,0.4939911365509033,-0.45682859420776367
1766408806394223000,7.60722314453125,-1.5660266876220703,0.6214685440063477,-0.6075956225395203
1766408806404225800,7.617225830078125,-1.4617366790771484,0.8276369571685791,-0.6868844628334045
1766408806434233300,7.6472333984375,-0.5077962875366211,0.8827660083770752,-0.6121979355812073
1766408806444236000,7.657236083984375,-0.14210796356201172,0.8020708560943604,-0.5131627321243286
1766408806454238700,7.66723876953125,0.13425159454345703,0.7764980792999268,-0.5237343907356262
1766408806464241200,7.6772412109375,0.4634590148925781,0.9061100482940674,-0.6639764308929443
1766408806474243600,7.68724365234375,0.696380615234375,1.0011494159698486,-0.7434755563735962
1766408806484246300,7.697246337890625,0.5477066040039062,1.0271282196044922,-0.7149782180786133
1766408806499250200,7.712250244140625,0.0989236831665039,0.8688127994537354,-0.5724634528160095
1766408806509252900,7.7222529296875,0.044577598571777344,0.6292788982391357,-0.5492720603942871
1766408806519255300,7.73225537109375,0.22498798370361328,0.34383249282836914,-0.5823860168457031
1766408806534259200,7.74725927734375,0.7708683013916016,0.1231694221496582,-0.5487840175628662
1766408806549263000,7.76226318359375,1.5024986267089844,-0.14213228225708008,-0.7265679836273193
1766408806559265800,7.772265869140625,2.323333740234375,-0.2571289539337158,-0.9175088405609131
1766408806569268200,7.782268310546875,2.925996780395508,-0.4303557872772217,-1.0021147727966309
1766408806579270700,7.792270751953125,3.100602149963379,-0.6158778667449951,-1.1267879009246826
1766408806594274600,7.807274658203125,2.9708356857299805,-0.6997530460357666,-1.386918067932129
1766408806604277000,7.817277099609375,3.080937385559082,-0.5923330783843994,-1.4252407550811768
1766408806614279700,7.82727978515625,3.247572898864746,-0.5023725032806396,-1.6295585632324219
1766408806624282400,7.837282470703125,3.3196229934692383,-0.3652217388153076,-1.8577711582183838
1766408806639286300,7.852286376953125,2.383197784423828,-0.35851049423217773,-1.7112407684326172
1766408806659291100,7.872291015625,0.6403579711914062,-0.07652497291564941,-1.3976281881332397
1766408806669293800,7.8822939453125,0.13456439971923828,-0.07390260696411133,-1.5043569803237915
1766408806679296500,7.892296630859375,-0.3303670883178711,-0.24976134300231934,-1.4649500846862793
1766408806694300400,7.907300537109375,-0.17981910705566406,-0.5484411716461182,-1.3511438369750977
1766408806704302800,7.917302734375,0.4285907745361328,-0.648505449295044,-1.490340232849121
1766408806714305300,7.92730517578125,1.001993179321289,-0.8538064956665039,-1.6924182176589966
1766408806724308000,7.937307861328125,1.4393644332885742,-1.0328681468963623,-1.6859402656555176
1766408806739311900,7.952311767578125,1.3792285919189453,-1.0492193698883057,-1.6147983074188232
1766408806749314600,7.962314453125,0.6972503662109375,-0.9360086917877197,-1.5068364143371582
1766408806764318200,7.977318115234375,-0.3745841979980469,-0.8237504959106445,-0.8291335701942444
1766408806774321000,7.98732080078125,-0.9759950637817383,-0.7979315519332886,-0.5515519976615906
1766408806789324800,8.00232470703125,-1.9278106689453125,-0.780703067779541,-0.4626660645008087
1766408806799327500,8.012327392578126,-2.101518154144287,-0.7201981544494629,-0.33500704169273376
1766408806809330000,8.022329833984376,-1.5507993698120117,-0.6700946092605591,-0.17511005699634552
1766408806819332600,8.03233251953125,-0.7464542388916016,-0.6933974027633667,-0.04175957292318344
1766408806829335000,8.0423349609375,-0.1401042938232422,-0.6270453929901123,0.060155317187309265
1766408806839337700,8.052337646484375,0.1521158218383789,-0.48915088176727295,0.17638030648231506
1766408806849340400,8.06234033203125,0.20501995086669922,0.06754779815673828,0.3246725797653198
1766408806859342800,8.0723427734375,-0.5433969497680664,-0.34452104568481445,0.054021306335926056
1766408806869345500,8.082345458984374,-0.827702522277832,-0.16299986839294434,0.05747278407216072
1766408806879348000,8.092347900390624,-1.2417421340942383,0.08209419250488281,0.33425435423851013
1766408806894352000,8.107351806640626,-2.200188159942627,0.19759273529052734,0.6688255071640015
1766408806904354600,8.1173544921875,-2.5765089988708496,0.39762330055236816,0.8013339042663574
1766408806914357000,8.12735693359375,-2.6362056732177734,0.458416223526001,0.9117627143859863
1766408806924359400,8.137359375,-2.3168458938598633,0.37715888023376465,0.9898554682731628
1766408806939363600,8.152363525390625,-1.6843667030334473,0.24279046058654785,1.0395725965499878
1766408806949366000,8.162365966796875,-1.3542795181274414,0.25066208839416504,0.9988166093826294
1766408806959368700,8.17236865234375,-1.0042104721069336,0.3377060890197754,0.8618600964546204
1766408806974372900,8.187372802734375,-0.5734090805053711,0.43488430976867676,0.6666160821914673
1766408806989376500,8.20237646484375,-0.04917144775390625,0.5419621467590332,0.550957202911377
1766408807004380400,8.21738037109375,0.2369823455810547,0.5061733722686768,0.5011287331581116
1766408807014383000,8.227383056640624,0.21907615661621094,0.5553784370422363,0.477835476398468
1766408807029387000,8.242386962890626,0.2990703582763672,0.8019845485687256,0.2596699297428131
1766408807039389400,8.252389404296874,0.5486469268798828,0.853107213973999,0.0738781988620758
1766408807049391900,8.262391845703124,0.5682735443115234,0.9033350944519043,-0.01807263493537903
1766408807059394600,8.27239453125,0.3137636184692383,1.0465903282165527,0.09090927243232727
1766408807074398200,8.287398193359374,0.025238037109375,0.9824225902557373,0.18251734972000122
1766408807084401200,8.297401123046875,-0.11148357391357422,0.7890307903289795,0.3363479971885681
1766408807099405000,8.312405029296874,-0.00531005859375,0.463299036026001,0.6734645962715149
1766408807109407500,8.322407470703125,0.35404491424560547,0.17685556411743164,0.8511162400245667
1766408807119410000,8.332409912109375,0.43692970275878906,-0.0036101341247558594,1.0350368022918701
1766408807129412600,8.34241259765625,0.5569992065429688,0.04240274429321289,1.1703999042510986
1766408807139415300,8.352415283203126,0.7343063354492188,0.1703784465789795,1.1648142337799072
1766408807149418000,8.36241796875,0.8476018905639648,0.18920421600341797,0.9640589952468872
1766408807164421600,8.377421630859375,0.9537029266357422,0.29952549934387207,0.6598175168037415
1766408807174424300,8.38742431640625,1.0807390213012695,0.34965991973876953,0.4959763288497925
1766408807184426800,8.3974267578125,1.2656621932983398,0.2846839427947998,0.24909502267837524
1766408807194429400,8.407429443359375,1.7417030334472656,0.11199283599853516,0.04136615991592407
1766408807209433300,8.422433349609374,2.651784896850586,-0.3065018653869629,-0.16370916366577148
1766408807219435800,8.432435791015624,3.196597099304199,-0.49631786346435547,-0.20389002561569214
1766408807234439700,8.447439697265626,3.434154510498047,-0.6749285459518433,-0.23899632692337036
1766408807249443600,8.462443603515625,2.829071044921875,-0.8356317281723022,-0.21922588348388672
1766408807264447500,8.477447509765625,1.8245506286621094,-0.9535915851593018,-0.022306323051452637
1766408807279451400,8.492451416015625,0.08979988098144531,-1.0890058279037476,0.4472549557685852
1766408807289454000,8.5024541015625,-0.9669761657714844,-1.070233702659607,0.6610272526741028
1766408807299456500,8.51245654296875,-1.3771657943725586,-0.9766802787780762,0.6094992160797119
1766408807309459200,8.522459228515626,-1.0999078750610352,-0.857471227645874,0.2302706241607666
1766408807319461600,8.532461669921876,-0.3455066680908203,-0.8222213983535767,-0.35562288761138916
1766408807329464300,8.54246435546875,-0.22852516174316406,-0.7382382154464722,-0.18176865577697754
1766408807344468200,8.55746826171875,0.31960296630859375,-0.8847546577453613,-0.8156141042709351
1766408807354471000,8.567470947265624,-0.0035037994384765625,-0.9524970054626465,-0.8523584008216858
1766408807364473300,8.577473388671875,-0.43404674530029297,-0.8272285461425781,-0.5276644229888916
1766408807374476000,8.58747607421875,-0.7730531692504883,-0.8308159112930298,-0.4278508126735687
1766408807384478500,8.597478515625,-0.7452621459960938,-1.0899373292922974,-0.4193885624408722
1766408807394481000,8.60748095703125,-0.7929506301879883,-1.2459461688995361,-0.12732982635498047
1766408807404483600,8.617483642578126,-0.9914121627807617,-1.2857067584991455,0.04513520002365112
1766408807419487500,8.632487548828125,-0.8046865463256836,-1.2770098447799683,0.2314159870147705
1766408807434491400,8.647491455078125,-0.5490751266479492,-1.2095297574996948,0.20334720611572266
1766408807444494000,8.657494140625,-0.48372840881347656,-1.0895642042160034,0.15617793798446655
1766408807454496800,8.667496826171876,-0.27268028259277344,-0.8821126222610474,0.11353522539138794
1766408807464499200,8.677499267578124,-0.09311676025390625,-0.6454789638519287,0.01192021369934082
1766408807474502000,8.687501953125,-0.01616382598876953,-0.44514238834381104,-0.096061110496521
1766408807494507300,8.70750732421875,-0.12524127960205078,-0.14201486110687256,-0.41162410378456116
1766408807504509700,8.717509765625,-0.42516422271728516,-0.0017864704132080078,-0.38397207856178284
1766408807524514800,8.737514892578124,-1.004490852355957,0.21129846572875977,-0.1405814290046692
1766408807539518700,8.752518798828126,-1.0627107620239258,0.31908106803894043,0.17633873224258423
1766408807549521400,8.762521484375,-0.965062141418457,0.3064999580383301,0.3417285084724426
1766408807559523800,8.77252392578125,-0.7772312164306641,0.30057501792907715,0.42317909002304077
1766408807569526500,8.782526611328125,-0.7141523361206055,0.26876354217529297,0.41173475980758667
1766408807584530400,8.797530517578124,-0.3256082534790039,0.3126106262207031,0.38155049085617065
1766408807594533000,8.807533203125,-0.0655813217163086,0.25722455978393555,0.4763476848602295
1766408807604535600,8.81753564453125,-0.10894775390625,0.1390688419342041,0.7190935611724854
1766408807614538000,8.8275380859375,-0.2871131896972656,0.1375751495361328,0.827905535697937
1766408807629542000,8.8425419921875,-0.08022403717041016,0.30408167839050293,0.5184798240661621
1766408807639544600,8.852544677734375,0.005841255187988281,0.29923272132873535,0.08192622661590576
1766408807649547300,8.86254736328125,0.1459522247314453,0.3566756248474121,-0.3295772671699524
1766408807664551000,8.877551025390625,0.6950664520263672,0.6282978057861328,-0.8317210078239441
1766408807679555000,8.89255517578125,1.153944969177246,0.5272047519683838,-1.1075749397277832
1766408807689557800,8.902557861328125,1.5330610275268555,0.3074347972869873,-1.0224677324295044
1766408807699560200,8.912560302734375,1.738534927368164,0.12123942375183105,-0.8620744347572327
1766408807714564000,8.927564208984375,1.4271230697631836,0.08390021324157715,-0.4518582820892334
1766408807724566500,8.93756640625,1.1541414260864258,0.17528367042541504,-0.13689875602722168
1766408807739570700,8.95257080078125,0.5150527954101562,0.11318802833557129,0.12432432174682617
1766408807754574300,8.96757421875,0.3082122802734375,0.2910764217376709,0.1159018874168396
1766408807764577000,8.977576904296875,0.3708181381225586,0.46158742904663086,-0.003283381462097168
1766408807774579700,8.987579833984375,0.46648120880126953,0.5649821758270264,-0.11915650963783264
1766408807784582400,8.99758251953125,0.3931159973144531,0.5067417621612549,-0.18697389960289001
1766408807794584800,9.007584716796876,0.21256446838378906,0.4022181034088135,-0.3570449650287628
1766408807814590000,9.02758984375,0.30213260650634766,0.08930349349975586,-0.7335530519485474
1766408807829594000,9.042593994140624,0.8274431228637695,-0.2246840000152588,-0.9197344779968262
1766408807839596500,9.052596435546874,1.1077871322631836,-0.44860053062438965,-1.0727930068969727
1766408807849599000,9.062598876953125,1.4326896667480469,-0.613004207611084,-1.0673407316207886
1766408807859601700,9.0726015625,1.6889896392822266,-0.7883396148681641,-0.9252942204475403
1766408807869604000,9.08260400390625,1.7503318786621094,-0.9477529525756836,-0.7601590752601624
1766408807879606800,9.092606689453126,1.666590690612793,-1.0312119722366333,-0.5178859233856201
1766408807889609500,9.102609375,1.643235206604004,-1.039754867553711,-0.38951048254966736
1766408807899612200,9.112612060546875,1.5900335311889648,-1.0107735395431519,-0.41153985261917114
1766408807914615800,9.12761572265625,1.1305675506591797,-0.9310698509216309,-0.5771901607513428
1766408807929619700,9.14261962890625,0.3671875,-0.6214110851287842,-0.8209154009819031
1766408807939622400,9.152622314453126,-0.22975444793701172,-0.40059900283813477,-0.9565733075141907
1766408807949624800,9.162624755859374,-0.779510498046875,-0.236497163772583,-1.0642642974853516
1766408807964628700,9.177628662109376,-1.3867993354797363,-0.14490222930908203,-1.4214293956756592
1766408807974631400,9.18763134765625,-1.5402865409851074,-0.3359708786010742,-1.707876443862915
1766408807989634000,9.202634033203125,-1.428987979888916,0.33910608291625977,-1.0759119987487793
1766408808039648300,9.252648193359375,-0.29531383514404297,-0.11710906028747559,-0.8812644481658936
1766408808049651000,9.26265087890625,0.1504230499267578,-0.1291661262512207,-0.8553640246391296
1766408808059653400,9.2726533203125,0.4114971160888672,-0.10813450813293457,-0.9266262054443359
1766408808069656000,9.282656005859375,0.36395931243896484,-0.044790029525756836,-0.9513360857963562
1766408808084660000,9.297659912109374,-0.0674428939819336,0.05318951606750488,-0.6742396950721741
1766408808094662700,9.30766259765625,-0.47287845611572266,0.03776240348815918,-0.5145821571350098
1766408808104665000,9.3176650390625,-0.8392210006713867,0.0207979679107666,-0.41795074939727783
1766408808114667800,9.327667724609375,-0.9950628280639648,0.06440496444702148,-0.29775404930114746
1766408808124670500,9.33767041015625,-0.9796733856201172,0.17772555351257324,-0.26695162057876587
1766408808134673200,9.347673095703126,-0.9282150268554688,0.2394089698791504,-0.23442140221595764
1766408808149676800,9.3626767578125,-1.0784273147583008,0.30129265785217285,-0.1876082718372345
1766408808164680700,9.3776806640625,-1.1466197967529297,0.4757225513458252,-0.2960326075553894
1766408808174683400,9.387683349609375,-1.159139633178711,0.5637192726135254,-0.4971548318862915
1766408808189687300,9.402687255859375,-1.0172462463378906,0.5374987125396729,-0.6340481638908386
1766408808209692400,9.4226923828125,-0.8252468109130859,0.4877450466156006,-0.6540354490280151
1766408808219695000,9.432695068359376,-0.8064460754394531,0.4917638301849365,-0.613532304763794
1766408808234699000,9.447698974609375,-1.0981378555297852,0.726449728012085,-0.5731717348098755
1766408808244701400,9.457701416015626,-1.3257322311401367,0.8229413032531738,-0.40376317501068115
1766408808254704000,9.4677041015625,-1.6055660247802734,0.8206512928009033,-0.1778268665075302
1766408808264706600,9.47770654296875,-1.7980356216430664,0.8767576217651367,-0.06105995178222656
1766408808274709200,9.487709228515625,-1.5789403915405273,1.003598928451538,0.08396026492118835
1766408808284711700,9.497711669921875,-1.0911941528320312,1.1078882217407227,0.21776428818702698
1766408808294714400,9.50771435546875,-0.8593711853027344,1.0833148956298828,0.23789212107658386
1766408808304717000,9.517717041015626,-0.625758171081543,1.18977689743042,0.297637403011322
1766408808319721000,9.532720947265625,2.3755645751953125,-0.5677454471588135,-1.8442435264587402
1766408808339726000,9.55272607421875,0.5870342254638672,1.882009744644165,0.5131451487541199
1766408808349728800,9.562728759765625,1.3373241424560547,1.179286003112793,0.11115381121635437
1766408808359731200,9.572731201171875,1.567697525024414,0.24351930618286133,0.5393350720405579
1766408808369734000,9.58273388671875,1.783431053161621,-0.06499528884887695,1.1288788318634033
1766408808379736600,9.592736572265625,1.5634002685546875,-0.07022881507873535,1.3360878229141235
1766408808394740500,9.607740478515625,1.4152936935424805,-0.3390681743621826,1.5760858058929443
1766408808404743000,9.617742919921875,1.5750207901000977,-0.07514142990112305,1.6647695302963257
1766408808414745600,9.62774560546875,1.3764629364013672,0.11532711982727051,1.6434714794158936
1766408808424748300,9.637748291015624,0.9433412551879883,0.25449180603027344,1.4794553518295288
1766408808434751000,9.6477509765625,0.7859268188476562,0.5226809978485107,1.1905344724655151
1766408808449754600,9.662754638671874,1.075338363647461,0.1685636043548584,1.0142322778701782
1766408808459757300,9.67275732421875,1.5578842163085938,-0.023455381393432617,0.6806632876396179
1766408808469759700,9.682759765625,1.987518310546875,-0.2714660167694092,0.7493830919265747
1766408808484763600,9.697763671875,2.5324363708496094,-0.6033549308776855,0.8450523614883423
1766408808494766300,9.707766357421875,2.7671327590942383,-0.8586615324020386,0.7978694438934326
1766408808504769000,9.71776904296875,3.123258590698242,-1.1469658613204956,0.8207187652587891
1766408808514771500,9.727771484375,3.1238107681274414,-1.3725844621658325,0.9576557874679565
1766408808524774100,9.737774169921876,2.3098316192626953,-1.3806439638137817,1.2267272472381592
1766408808534776800,9.74777685546875,1.4837312698364258,-1.1458784341812134,1.0183796882629395
1766408808549780700,9.76278076171875,-0.29215145111083984,-0.3677222728729248,0.7621224522590637
1766408808564784400,9.777784423828125,-1.2174835205078125,-0.445462703704834,0.6289656162261963
1766408808574787000,9.787787109375,-2.1101584434509277,-0.278827428817749,0.6135698556900024
1766408808584789800,9.797789794921876,-2.2994327545166016,-0.31510496139526367,0.7068830132484436
1766408808599793700,9.812793701171875,-1.2600946426391602,-1.317891001701355,1.2624186277389526
1766408808614797600,9.827797607421875,-0.7587404251098633,-1.591179609298706,0.9129348397254944
1766408808629801500,9.842801513671875,-0.12297344207763672,-1.2463511228561401,1.1454180479049683
1766408808644805400,9.857805419921876,-0.6586904525756836,0.20581984519958496,1.0936943292617798
1766408808659809300,9.872809326171875,-0.6665191650390625,1.104278564453125,-0.9493177533149719
1766408808669811700,9.882811767578126,0.020589828491210938,-0.8886246681213379,-0.6273300647735596
1766408808684816000,9.89781591796875,1.1706056594848633,-1.4502143859863281,0.2535974979400635
1766408808694818300,9.907818359375,0.34215831756591797,-1.2906150817871094,0.7622219324111938
1766408808714823700,9.92782373046875,-0.23935985565185547,-0.47232604026794434,0.2952658534049988
1766408808724826000,9.937826171875,-0.4298124313354492,-0.5721900463104248,0.5828667283058167
1766408808739830000,9.952830078125,-0.6249361038208008,-0.4531979560852051,0.7035802006721497
1766408808754834000,9.967833984375,-1.1195182800292969,-0.37902045249938965,0.39110857248306274
1766408808774839300,9.98783935546875,-1.2506694793701172,-0.003170490264892578,0.20115935802459717
1766408808784841700,9.997841796875,-1.279271125793457,0.037427663803100586,0.29265737533569336
1766408808799845600,10.012845703125,-0.7628974914550781,0.053606271743774414,0.5026804208755493
1766408808819851000,10.03285107421875,0.11959552764892578,0.058545589447021484,0.5810511112213135
1766408808839856000,10.052856201171876,0.21009254455566406,0.6576693058013916,0.02796560525894165
1766408808854860000,10.067860107421875,-0.2944955825805664,0.8688347339630127,-0.1392025351524353
1766408808869864000,10.082864013671875,-0.47742748260498047,0.6814765930175781,0.3306492567062378
1766408808884867800,10.097867919921875,-0.30066680908203125,0.33544206619262695,0.7496269345283508
1766408808934880800,10.147880859375,-0.6185064315795898,0.5323419570922852,0.4794766306877136
1766408808944883200,10.15788330078125,-1.2511663436889648,0.48244476318359375,0.07126855850219727
1766408808959887400,10.172887451171874,-0.5334959030151367,0.914210319519043,0.31487083435058594
1766408808999897900,10.21289794921875,0.6957902908325195,0.01180410385131836,-0.07736214995384216
1766408809014901800,10.22790185546875,1.4426565170288086,-0.305804967880249,0.2020144760608673
1766408809029905400,10.242905517578125,1.679457664489746,-0.24227070808410645,-0.11443474888801575
1766408809044909300,10.257909423828124,1.7085466384887695,-0.11526846885681152,-0.23060381412506104
1766408809054912000,10.267912109375,1.519606590270996,-0.19803738594055176,-0.3166215419769287
1766408809064914700,10.277914794921875,1.3010616302490234,-0.20227670669555664,-0.5274294018745422
1766408809089921000,10.302921142578125,1.4866037368774414,-0.030388832092285156,-0.9043028354644775
1766408809104925200,10.31792529296875,0.9748449325561523,-0.1671738624572754,-1.0239216089248657
1766408809114927600,10.327927734375,0.41718101501464844,-0.07992959022521973,-1.0439684391021729
1766408809124930300,10.337930419921875,0.030348777770996094,0.12842941284179688,-1.1365644931793213
1766408809139934200,10.352934326171875,-0.33005523681640625,0.12637686729431152,-1.4160200357437134
1766408809159939300,10.372939208984375,0.10716438293457031,-0.3735058307647705,-1.0736150741577148
1766408809169942000,10.38294189453125,0.7898769378662109,-0.6907632350921631,-0.8688215613365173
1766408809179944700,10.39294482421875,1.603738784790039,-0.8639624118804932,-0.7783642411231995
1766408809194948600,10.407948486328126,2.642881393432617,-1.0139738321304321,-0.6123511791229248
1766408809224956400,10.437956298828125,2.324702262878418,-1.3362550735473633,-0.42366814613342285
1766408809234958800,10.447958740234375,1.435460090637207,-1.1744829416275024,-0.6974063515663147
1766408809244961500,10.45796142578125,0.4615459442138672,-1.0865715742111206,-0.8618575930595398
1766408809254964200,10.467964111328126,-0.43233585357666016,-0.9574062824249268,-0.9616513252258301
1766408809264966700,10.477966552734374,-1.0450172424316406,-0.9403871297836304,-1.0469295978546143
1766408809284971800,10.4979716796875,-1.50083589553833,-0.8515872955322266,-0.9860553741455078
1766408809294974500,10.507974365234375,-1.5578017234802246,-0.8120310306549072,-0.8918396830558777
1766408809304977200,10.51797705078125,-1.6534128189086914,-0.726496696472168,-0.7652266621589661
1766408809314979800,10.527979736328126,-1.576127052307129,-0.6819665431976318,-0.674157977104187
1766408809324982300,10.537982177734374,-1.2003860473632812,-0.732733964920044,-0.6230631470680237
1766408809334985000,10.54798486328125,-0.6678876876831055,-0.8658802509307861,-0.5681643486022949
1766408809344987600,10.557987548828125,-0.07520103454589844,-1.0969384908676147,-0.44546079635620117
1766408809359991600,10.572991455078125,0.32489585876464844,-1.2456624507904053,-0.2932979464530945
1766408809369994200,10.582994140625,0.16170883178710938,-1.1413692235946655,-0.3887177109718323
1766408809379997000,10.592996826171875,0.0027523040771484375,-0.9872349500656128,-0.5078186988830566
1766408809389999600,10.60299951171875,-0.04561138153076172,-0.8892476558685303,-0.4666621685028076
1766408809405003300,10.618003173828125,-0.16344356536865234,-0.6381032466888428,-0.35297977924346924
1766408809415006000,10.628005859375,-0.016672134399414062,-0.5324950218200684,-0.15268653631210327
1766408809430010000,10.643010009765625,0.10681724548339844,-0.3733804225921631,0.08363074064254761
1766408809440012500,10.653012451171875,-0.07946014404296875,-0.25310540199279785,0.13872623443603516
1766408809450015200,10.66301513671875,-0.4609870910644531,0.07311701774597168,-0.1284894049167633
1766408809460017700,10.673017578125,-0.8235626220703125,-0.02266979217529297,0.01803654432296753
1766408809470020400,10.683020263671875,-1.0024595260620117,-0.18866848945617676,0.22750763595104218
1766408809480023000,10.69302294921875,-1.157862663269043,-0.10357427597045898,0.15302105247974396
1766408809495027000,10.70802685546875,-1.2515249252319336,0.0866537094116211,-0.046382397413253784
1766408809510030800,10.72303076171875,-0.7981901168823242,0.23829913139343262,-0.1228734701871872
1766408809520033500,10.733033447265624,-0.4272747039794922,0.26485657691955566,-0.198709636926651
1766408809535037400,10.748037353515626,-0.13087844848632812,0.316802978515625,-0.2714998126029968
1766408809545040100,10.7580400390625,-0.1131753921508789,0.37870335578918457,-0.4123184084892273
1766408809560044000,10.7730439453125,-0.16971588134765625,0.4617190361022949,-0.47232818603515625
1766408809570046700,10.783046630859374,-0.20451068878173828,0.4714334011077881,-0.3995833396911621
1766408809585050400,10.79805029296875,-0.15361976623535156,0.31978917121887207,-0.2590312659740448
1766408809595053000,10.808052978515626,0.014637947082519531,0.2654092311859131,-0.19246292114257812
1766408809605055700,10.8180556640625,-0.20491981506347656,0.25583982467651367,-0.11951068043708801
1766408809615058400,10.828058349609375,-0.28172779083251953,0.6147336959838867,-0.3533710241317749
1766408809630062300,10.843062255859374,-0.016141891479492188,0.870948076248169,-0.24777936935424805
1766408809640064800,10.853064697265625,0.2396373748779297,0.8625361919403076,-0.18866252899169922
1766408809655068700,10.868068603515624,0.6134662628173828,0.8888123035430908,-0.18170353770256042
1766408809665071400,10.8780712890625,0.664179801940918,0.9726235866546631,-0.1948080062866211
1766408809675074000,10.888073974609375,0.4548654556274414,0.9661483764648438,-0.18558725714683533
1766408809685076700,10.89807666015625,0.045433998107910156,1.03029465675354,-0.08121635019779205
1766408809700080600,10.91308056640625,-0.2500782012939453,1.1355736255645752,-0.3253639340400696
1766408809715084300,10.928084228515624,-0.4429740905761719,0.7205870151519775,0.08192728459835052
1766408809725087200,10.938087158203125,-0.5332803726196289,0.5633714199066162,0.30505266785621643
1766408809735089700,10.948089599609375,-0.657135009765625,0.520280122756958,0.4778044819831848
1766408809745092400,10.95809228515625,-0.41564083099365234,0.30204224586486816,0.5592530965805054
1766408809760096300,10.97309619140625,0.3605213165283203,0.7048466205596924,0.07702049612998962
1766408809775100200,10.98810009765625,0.7968206405639648,0.7710866928100586,-0.32167720794677734
1766408809795105500,11.00810546875,-0.04316234588623047,0.879833459854126,-0.43575453758239746
1766408809805108200,11.018108154296876,-0.39591026306152344,0.8998968601226807,-0.34749799966812134
1766408809815110700,11.028110595703126,-0.39713191986083984,-0.32659292221069336,0.7938399910926819
1766408809825113300,11.03811328125,-0.011649131774902344,-0.3899827003479004,1.6624712944030762
1766408809835116000,11.048115966796875,0.07190704345703125,0.24146223068237305,1.0092759132385254
1766408809845118700,11.05811865234375,0.11145496368408203,0.8009071350097656,-0.1400020718574524
1766408809860122600,11.07312255859375,-0.1108551025390625,1.0241761207580566,-0.6162015199661255
1766408809870125300,11.083125244140625,-0.0133514404296875,1.1149089336395264,-0.5839105248451233
1766408809880128000,11.0931279296875,0.5484952926635742,1.3456299304962158,-0.9588489532470703
1766408809890130400,11.10313037109375,0.46621036529541016,1.3207738399505615,-1.0140513181686401
1766408809905134600,11.118134521484375,0.3653383255004883,0.9048352241516113,-0.335697740316391
1766408809915137300,11.12813720703125,0.13594913482666016,0.7128927707672119,0.13323447108268738
1766408809925139700,11.1381396484375,-0.10373973846435547,0.4558696746826172,0.4876308739185333
1766408809940143900,11.153143798828125,0.23072338104248047,-0.010776996612548828,0.7741600275039673
1766408809950146600,11.163146484375,0.6488409042358398,-0.21486401557922363,0.6689448356628418
1766408809965150500,11.178150390625,1.3467779159545898,-0.1887810230255127,0.3298962712287903
1766408809980154600,11.193154541015625,1.8020000457763672,-0.364086389541626,0.2143770456314087
1766408809990157000,11.203156982421875,1.9771976470947266,-0.7238507270812988,0.33840078115463257
1766408810000159700,11.21315966796875,2.064027786254883,-1.1388309001922607,0.6780750751495361
1766408810010162400,11.223162353515624,1.899209976196289,-1.4803376197814941,1.0673925876617432
1766408810025166300,11.238166259765626,1.3301677703857422,-1.7367154359817505,1.411645531654358
1766408810040170200,11.253170166015625,0.7039670944213867,-1.6233025789260864,1.3197054862976074
1766408810055174400,11.26817431640625,-0.03764915466308594,-1.3187685012817383,1.0580295324325562
1766408810065177000,11.278177001953125,-0.4445362091064453,-1.0618767738342285,0.8070293664932251
1766408810080181000,11.293180908203125,-0.679600715637207,-0.7857756614685059,0.531230628490448
1766408810095185200,11.30818505859375,-0.8476600646972656,-0.6134705543518066,0.47436830401420593
1766408810105187600,11.3181875,-0.8447399139404297,-0.5482008457183838,0.6010140776634216
1766408810115190300,11.328190185546875,-0.8402557373046875,-0.5628800392150879,0.7166042327880859
1766408810125192700,11.338192626953125,-0.7506523132324219,-0.5643956661224365,0.7576831579208374
1766408810135195600,11.348195556640626,-0.6559200286865234,-0.5358877182006836,0.6215914487838745
1766408810150199600,11.363199462890625,-0.6237831115722656,-0.42858099937438965,0.3123842775821686
1766408810160202200,11.3732021484375,-0.6952629089355469,-0.30791568756103516,0.08317998796701431
1766408810170205000,11.383204833984376,-0.7637805938720703,-0.08104777336120605,-0.15608859062194824
1766408810185208800,11.398208740234375,-0.7526111602783203,0.07233667373657227,-0.18030470609664917
1766408810200212700,11.413212646484375,-0.9771318435668945,-0.08583617210388184,0.20736032724380493
1766408810210215400,11.42321533203125,-1.124856948852539,-0.1285414695739746,0.4357156455516815
1766408810220218000,11.433218017578126,-1.1225471496582031,-0.2317674160003662,0.6193037629127502
1766408810235222000,11.448221923828125,-0.7277355194091797,-0.4666941165924072,0.7467705011367798
1766408810245225000,11.458224853515626,-0.23204898834228516,-0.5964598655700684,0.6712828874588013
1766408810255227600,11.4682275390625,0.07277870178222656,-0.6186985969543457,0.5303301811218262
1766408810265230000,11.47822998046875,0.08090686798095703,-0.5100545883178711,0.42428112030029297
1766408810280234000,11.49323388671875,-0.35623836517333984,-0.10047721862792969,0.2563777267932892
1766408810290237000,11.50323681640625,-0.7096014022827148,0.1955559253692627,0.08653640002012253
1766408810300239600,11.513239501953125,-0.9617128372192383,0.31200742721557617,-0.09662382304668427
1766408810310242000,11.523241943359375,-0.9048624038696289,0.21540069580078125,-0.04782336950302124
1766408810325246000,11.538245849609375,-0.32699108123779297,0.0007779598236083984,0.269209086894989
1766408810335249000,11.548248779296875,-0.05653190612792969,-0.1237344741821289,0.47087806463241577
1766408810350252800,11.563252685546875,0.04275989532470703,-0.09627032279968262,0.6376174092292786
1766408810365256700,11.578256591796874,-0.34494972229003906,0.3446474075317383,0.182719424366951
1766408810380260900,11.5932607421875,-0.7368268966674805,0.8629987239837646,-0.36706364154815674
1766408810390263600,11.603263671875,-0.7102804183959961,1.040297508239746,-0.589107871055603
1766408810400266000,11.613265869140625,-0.42023658752441406,1.1456584930419922,-0.6252318024635315
1766408810415270100,11.628270263671874,-0.26067161560058594,1.1096014976501465,-0.2990565896034241
1766408810425272800,11.63827294921875,-0.3705759048461914,1.049206018447876,-0.18636824190616608
1766408810435275500,11.648275634765625,-0.6294031143188477,1.2293870449066162,-0.07003790140151978
1766408810445278200,11.6582783203125,-0.9920587539672852,1.3378796577453613,-0.5141818523406982
1766408810455281000,11.668281005859376,-1.2953033447265625,1.7548842430114746,-0.9990072846412659
1766408810465283600,11.67828369140625,-1.3543505668640137,1.9720852375030518,-1.254814624786377
1766408810475286000,11.6882861328125,-1.1013727188110352,1.635831356048584,-1.045581579208374
1766408810485288700,11.698288818359375,-0.5672101974487305,0.9719009399414062,-0.4366196095943451
1766408810500292900,11.71329296875,0.7452898025512695,-0.03284716606140137,0.714454710483551
1766408810515296800,11.728296875,1.9367828369140625,-0.9334983825683594,1.6315728425979614
1766408810525299500,11.738299560546874,2.6083898544311523,-1.2394664287567139,1.8601423501968384
1766408810540303400,11.753303466796876,3.0115251541137695,-1.4015027284622192,1.8663114309310913
1766408810555307500,11.7683076171875,3.101193428039551,-1.5047943592071533,1.7731645107269287
1766408810570311400,11.7833115234375,2.7097244262695312,-0.9390203952789307,0.9284775257110596
1766408810585315300,11.7983154296875,1.8166913986206055,0.4802687168121338,-0.6919456720352173
1766408810595318000,11.808318115234375,1.5003900527954102,0.6877801418304443,-1.1174349784851074
1766408810605320700,11.81832080078125,1.2134361267089844,0.581789493560791,-0.9295760989189148
1766408810615323400,11.828323486328125,0.4199485778808594,0.45152926445007324,-0.7287655472755432
1766408810625326000,11.838326171875,-0.06259536743164062,0.5301790237426758,-0.7889257669448853
1766408810640330200,11.853330322265625,-1.0045642852783203,0.08709907531738281,-0.7044333219528198
1766408810650333000,11.8633330078125,-1.235692024230957,-0.1961987018585205,-0.5549444556236267
1766408810660335600,11.873335693359374,-1.2690911293029785,-0.4358484745025635,-0.41940662264823914
1766408810670338300,11.88333837890625,-0.9916400909423828,-0.5886397361755371,-0.3555868864059448
1766408810680341000,11.893341064453125,-0.4895820617675781,-0.697453498840332,-0.46275877952575684
1766408810690343400,11.903343505859375,0.14792823791503906,-0.7257165908813477,-0.8157183527946472
1766408810700346400,11.913346435546876,0.8678464889526367,-0.7791574001312256,-1.0822174549102783
1766408810710349000,11.92334912109375,1.729888916015625,-1.2208921909332275,-1.0793763399124146
1766408810725353000,11.93835302734375,2.8854455947875977,-1.752315878868103,-0.7913574576377869
1766408810740357000,11.953357177734375,2.995931625366211,-1.8050651550292969,-0.3712512254714966
1766408810755361000,11.968361083984375,1.8800687789916992,-1.8094016313552856,-0.1476072072982788
1766408810765363700,11.97836376953125,1.1147117614746094,-2.084914207458496,-0.014123082160949707
1766408810775366700,11.98836669921875,0.5204057693481445,-1.9453541040420532,0.05963432788848877
1766408810785369000,11.998369140625,0.05322265625,-1.4215353727340698,-0.1979539394378662
1766408810795371800,12.008371826171874,-0.4274425506591797,-0.9832580089569092,-0.7400110960006714
1766408810805374500,12.01837451171875,-0.7193727493286133,-0.6564440727233887,-1.2859852313995361
1766408810815377000,12.028376953125,-0.9144725799560547,-0.467909574508667,-1.5170586109161377
1766408810825379800,12.0383798828125,-1.110525131225586,-0.24756789207458496,-1.527516484260559
1766408810840383700,12.0533837890625,-1.6852531433105469,-0.2934703826904297,-1.0000059604644775
1766408810850386400,12.063386474609375,-1.7508130073547363,-0.46678829193115234,-0.5235916376113892
1766408810865390600,12.078390625,-1.3520030975341797,-0.7595617771148682,-0.04447782039642334
1766408810875393300,12.088393310546875,-0.8624944686889648,-0.859264612197876,0.05960643291473389
1766408810900400000,12.113400146484375,0.5879049301147461,-0.9750852584838867,0.27368879318237305
1766408810915404000,12.128404052734375,0.8334007263183594,-0.9333791732788086,0.1380774974822998
1766408810925406700,12.13840673828125,0.3894510269165039,-0.7264668941497803,0.10923326015472412
1766408810935409400,12.148409423828125,-0.31351375579833984,-0.5500106811523438,0.15441811084747314
1766408810950413300,12.163413330078125,-1.1203312873840332,-0.5135743618011475,0.2638108730316162
1766408810960416000,12.173416015625,-1.2964730262756348,-0.4495413303375244,0.2567257881164551
1766408810970419000,12.1834189453125,-1.2316689491271973,-0.31854796409606934,0.23248612880706787
1766408810985422800,12.1984228515625,-0.8649187088012695,-0.07568693161010742,-0.0016443729400634766
1766408810995425500,12.208425537109376,-0.7555665969848633,0.04961585998535156,-0.13769268989562988
1766408811005428200,12.21842822265625,-0.8638973236083984,0.16969609260559082,-0.21935975551605225
1766408811015431000,12.228430908203125,-0.9344348907470703,0.3578646183013916,-0.4352797269821167
1766408811025433600,12.23843359375,-1.0109233856201172,0.5606715679168701,-0.6411539316177368
1766408811035436300,12.248436279296875,-1.2002696990966797,0.6039690971374512,-0.6660791635513306
1766408811050440200,12.263440185546875,-1.2088518142700195,0.5025322437286377,-0.4960634708404541
1766408811065444400,12.2784443359375,-0.9829339981079102,0.3537862300872803,-0.1573045253753662
1766408811075446800,12.28844677734375,-0.8553562164306641,0.26717567443847656,0.03160738945007324
1766408811090451000,12.303450927734374,-0.6643104553222656,0.257826566696167,0.05133342742919922
1766408811105454800,12.318454833984376,-0.5680723190307617,0.18976068496704102,0.31488776206970215
1766408811115457800,12.328457763671874,-0.2675933837890625,0.20683717727661133,0.3137778043746948
1766408811125460500,12.33846044921875,-0.03236103057861328,0.30309247970581055,0.08163297176361084
1766408811135463200,12.348463134765625,0.1668710708618164,0.4540126323699951,-0.21803510189056396
1766408811145465600,12.358465576171875,0.6525125503540039,0.6317110061645508,-0.5398513078689575
1766408811155468500,12.368468505859376,0.7560281753540039,0.7467954158782959,-0.5158188343048096
1766408811165471200,12.37847119140625,-2.4316306114196777,1.851440191268921,-0.8560380935668945
1766408811180475100,12.39347509765625,-0.12852191925048828,0.7407312393188477,-0.5370821952819824
1766408811190477800,12.403477783203124,0.4985160827636719,0.688955545425415,-0.2700207233428955
1766408811200480500,12.41348046875,1.6301469802856445,0.430980920791626,0.20267200469970703
1766408811210483200,12.423483154296875,2.1530351638793945,0.3533334732055664,0.19587171077728271
1766408811220486000,12.43348583984375,2.3626699447631836,0.23075222969055176,-0.17911386489868164
1766408811235490000,12.448489990234375,1.1182060241699219,0.36527585983276367,0.15496039390563965
1766408811245492700,12.45849267578125,0.24498367309570312,0.5759406089782715,0.13387668132781982
1766408811255495200,12.4684951171875,-0.39096546173095703,0.6616115570068359,-0.07809412479400635
1766408811270499600,12.48349951171875,-0.5318078994750977,0.7218682765960693,-0.11742472648620605
1766408811285503500,12.49850341796875,0.05430126190185547,0.7727499008178711,0.03714334964752197
1766408811295506000,12.508505859375,0.5181961059570312,0.7587800025939941,0.13973522186279297
1766408811305508900,12.5185087890625,0.7300243377685547,0.582942008972168,0.3199465274810791
1766408811320512800,12.5335126953125,1.0376405715942383,0.4945385456085205,0.41960763931274414
1766408811330515700,12.543515625,1.2407608032226562,0.36168336868286133,0.23788046836853027
1766408811340518400,12.553518310546876,1.320779800415039,0.17690396308898926,0.12004557251930237
1766408811350521000,12.56352099609375,1.417104721069336,-0.28891563415527344,0.18725711107254028
1766408811365525000,12.57852490234375,1.6728582382202148,-0.7285149097442627,0.07418492436408997
1766408811380529200,12.593529052734375,2.152242660522461,-0.9551107883453369,0.014945030212402344
1766408811390531600,12.603531494140626,2.526095390319824,-1.428309679031372,0.21180462837219238
1766408811400534300,12.6135341796875,2.619434356689453,-1.8846653699874878,0.5330586433410645
1766408811410537000,12.623536865234374,2.643610954284668,-2.3972675800323486,1.1957632303237915
1766408811420539600,12.63353955078125,2.309549331665039,-2.5767600536346436,1.7148898839950562
1766408811435543800,12.648543701171874,1.0896081924438477,-2.4720137119293213,1.9726195335388184
1766408811445546200,12.658546142578125,0.07001495361328125,-2.2359869480133057,1.9502304792404175
1766408811455549200,12.668549072265625,-0.7192468643188477,-1.9067103862762451,1.7769379615783691
1766408811465552000,12.6785517578125,-1.1822471618652344,-1.5645191669464111,1.2965776920318604
1766408811475554600,12.688554443359376,-1.3080615997314453,-1.2265701293945312,0.7225043177604675
1766408811490558500,12.703558349609375,-1.0043582916259766,-1.000586748123169,0.19295978546142578
1766408811500561400,12.7135615234375,-0.49011802673339844,-0.8438286781311035,-0.0918075442314148
1766408811510563800,12.723563720703124,-0.14259052276611328,-0.8139631748199463,-0.08862318098545074
1766408811520566500,12.73356640625,-0.10149955749511719,-0.8377254009246826,0.062116965651512146
1766408811535570400,12.7485703125,-0.26286983489990234,-0.9389272928237915,0.26372259855270386
1766408811550574600,12.76357470703125,-0.21152591705322266,-1.007001280784607,0.27218860387802124
1766408811560577300,12.773577392578124,-0.1008462905883789,-1.0292398929595947,0.2276032269001007
1766408811570580000,12.783580078125,0.014660835266113281,-0.9807466268539429,0.1540715992450714
1766408811580582700,12.793582763671875,0.03989982604980469,-0.8534179925918579,0.0276099294424057
1766408811590585300,12.80358544921875,-0.008886337280273438,-0.7341122627258301,0.013717979192733765
1766408811600588000,12.813588134765626,-0.1347980499267578,-0.6662074327468872,0.07408972084522247
1766408811615592200,12.82859228515625,-0.4457979202270508,-0.48529601097106934,0.12616506218910217
1766408811625595000,12.838594970703125,-0.6837902069091797,-0.3907632827758789,0.1476917862892151
1766408811635597600,12.84859765625,-0.7795467376708984,-0.40125322341918945,0.14391234517097473
1766408811645600300,12.858600341796874,-0.7924175262451172,-0.4288809299468994,0.17469464242458344
1766408811655603000,12.86860302734375,-0.896052360534668,-0.38577985763549805,0.2084904909133911
1766408811665605600,12.878605712890625,-1.0169696807861328,-0.33893561363220215,0.26235976815223694
1766408811675608300,12.8886083984375,0.2088623046875,-0.01907062530517578,0.20827005803585052
1766408811685611000,12.898611083984376,-1.7829370498657227,-0.39235830307006836,-0.15093271434307098
1766408811695613700,12.90861376953125,-1.3611335754394531,0.09232521057128906,0.3287915289402008
1766408811705616400,12.918616455078125,-1.0731830596923828,0.158125638961792,0.13216890394687653
1766408811715619000,12.928619140625,-0.8213119506835938,0.3223581314086914,-0.21281953155994415
1766408811725621800,12.938621826171875,-0.46764087677001953,0.3716437816619873,-0.16684819757938385
1766408811735624400,12.94862451171875,-0.04753303527832031,0.12025856971740723,0.12512102723121643
1766408811745627100,12.958627197265624,0.2785816192626953,-0.1939101219177246,0.5130237340927124
1766408811760631000,12.973631103515626,0.38246631622314453,-0.3079533576965332,0.996683657169342
1766408811770633700,12.9836337890625,0.4082345962524414,-0.18263959884643555,0.9506626129150391
1766408811785638000,12.998637939453126,0.8509893417358398,0.06839489936828613,0.4327544569969177
1766408811800641800,13.013641845703125,1.590829849243164,0.5607168674468994,-0.34901314973831177
1766408811815646000,13.02864599609375,1.3977060317993164,0.7577657699584961,-0.2311365157365799
1766408811825648600,13.038648681640625,1.0408973693847656,0.6433556079864502,0.0037970542907714844
1766408811840652500,13.053652587890625,0.4347219467163086,0.3629336357116699,0.3749679625034332
1766408811855656700,13.06865673828125,-0.18916702270507812,0.3450500965118408,0.7354638576507568
1766408811865659400,13.078659423828125,-0.6014766693115234,0.3850533962249756,0.8761972784996033
1766408811875662000,13.088662109375,-1.0120306015014648,0.36539292335510254,0.8978055119514465
1766408811890666000,13.103666015625,-1.222254753112793,0.3671598434448242,0.8120599389076233
1766408811900668700,13.113668701171875,-0.9176340103149414,0.33379125595092773,0.622212827205658
1766408811910671400,13.12367138671875,-0.4833564758300781,0.213698148727417,0.41665172576904297
1766408811920674000,13.133674072265626,-0.0905303955078125,0.10240030288696289,0.25987952947616577
1766408811935678000,13.148677978515625,0.11721515655517578,0.019610166549682617,0.18197470903396606
1766408811950682000,13.16368212890625,0.47461605072021484,0.013443231582641602,0.13043338060379028
1766408811960684800,13.173684814453125,0.7700977325439453,0.010881423950195312,0.05137133598327637
1766408811975688700,13.188688720703125,0.6991119384765625,0.10672807693481445,0.06442394852638245
1766408811985691600,13.198691650390625,0.4259195327758789,0.3437063694000244,0.09749060869216919
1766408811995694000,13.208694091796875,0.19477176666259766,0.568356990814209,-0.031056314706802368
1766408812010698200,13.2236982421875,0.08553886413574219,0.5989232063293457,-0.24562957882881165
1766408812020701000,13.233700927734375,0.14085006713867188,0.6164262294769287,-0.4370291829109192
1766408812030703600,13.24370361328125,0.2678871154785156,0.5166852474212646,-0.2210533320903778
1766408812040706300,13.253706298828124,0.015964508056640625,0.4890425205230713,-0.6102796196937561
1766408812055710200,13.268710205078126,-0.4227771759033203,0.25640225410461426,-1.0215191841125488
1766408812075715600,13.288715576171874,-0.020546913146972656,-0.2308216094970703,-1.1352179050445557
1766408812085718300,13.29871826171875,0.62225341796875,-0.7282524108886719,-0.7337607741355896
1766408812100722400,13.313722412109374,1.6476964950561523,-1.167433738708496,-0.26646387577056885
1766408812110725000,13.32372509765625,2.4496355056762695,-1.2506543397903442,-0.17949891090393066
1766408812120727600,13.3337275390625,3.2134294509887695,-1.1931283473968506,-0.2878924012184143
1766408812130730500,13.34373046875,3.7565059661865234,-0.914313793182373,-0.588835597038269
1766408812140733200,13.353733154296876,3.9571008682250977,-1.1132948398590088,-0.4712568521499634
1766408812150736000,13.36373583984375,3.4746007919311523,-1.181900143623352,-0.2628963589668274
1766408812165739800,13.37873974609375,1.896963119506836,-0.8096909523010254,-0.4261554479598999
1766408812180743700,13.39374365234375,0.30625057220458984,-0.5916081666946411,-0.4606263041496277
1766408812195747800,13.408747802734375,-1.2944650650024414,-0.7427119016647339,-0.2307063341140747
1766408812205750500,13.41875048828125,-1.9990506172180176,-0.8147718906402588,-0.09225553274154663
1766408812215753000,13.4287529296875,-2.4450716972351074,-0.8486369848251343,-0.06572002172470093
1766408812230757000,13.443757080078125,-2.765319347381592,-0.8368051052093506,-0.22322922945022583
1766408812240759800,13.453759765625,-2.6532211303710938,-0.8555605411529541,-0.2327173948287964
1766408812250762500,13.463762451171876,-2.2175545692443848,-0.9518342018127441,-0.29887521266937256
1766408812260765200,13.47376513671875,-1.636042594909668,-0.9297275543212891,-0.47615885734558105
1766408812270767900,13.483767822265625,-1.006403923034668,-0.9570931196212769,-0.6380249857902527
1766408812280770600,13.4937705078125,-0.36460018157958984,-1.0563123226165771,-0.6714736223220825
1766408812290773200,13.503773193359375,0.357757568359375,-1.133685827255249,-0.5233618021011353
1766408812300776000,13.51377587890625,1.0781888961791992,-1.193161964416504,-0.4257226586341858
1766408812310778600,13.523778564453124,1.9279670715332031,-1.0429412126541138,-0.5373891592025757
1766408812320781300,13.53378125,2.6229209899902344,-0.9409409761428833,-0.6095884442329407
1766408812335785500,13.548785400390624,2.5449256896972656,-0.7723695039749146,-0.7308889031410217
1766408812350789400,13.563789306640626,1.3720264434814453,-0.5288410186767578,-0.46790605783462524
1766408812360792000,13.5737919921875,0.48004627227783203,-0.3635904788970947,-0.1963290572166443
1766408812370794800,13.583794677734375,-0.35532379150390625,-0.2736506462097168,-0.028114020824432373
1766408812385799000,13.598798828125,-1.1963558197021484,-0.223372220993042,0.07776647806167603
1766408812400802600,13.613802490234375,-1.7281532287597656,-0.1291029453277588,0.12398409843444824
1766408812415806700,13.628806640625,-1.8071269989013672,-0.01521754264831543,-0.15160107612609863
1766408812425809400,13.638809326171875,-1.748246669769287,0.0244901180267334,-0.31262099742889404
1766408812435812000,13.64881201171875,-1.5149245262145996,0.014177560806274414,-0.43200647830963135
1766408812445814800,13.658814697265624,-1.2768049240112305,-0.055428266525268555,-0.5019857883453369
1766408812455817500,13.6688173828125,-1.125925064086914,-0.09335947036743164,-0.5440154075622559
1766408812470821600,13.683821533203124,-0.8622007369995117,-0.120574951171875,-0.4625513553619385
1766408812480824000,13.693823974609375,-0.6712779998779297,-0.17421650886535645,-0.3729060888290405
1766408812505830700,13.71883056640625,-0.10898208618164062,-0.18009376525878906,-0.27157580852508545
1766408812520834800,13.733834716796874,0.4292631149291992,-0.005727291107177734,-0.33305835723876953
1766408812535838700,13.748838623046876,1.002058982849121,0.13081002235412598,-0.41015565395355225
1766408812545841400,13.75884130859375,0.9821176528930664,0.24773859977722168,-0.3598283529281616
1766408812555844000,13.768843994140624,0.7811508178710938,0.37860941886901855,-0.2978217601776123
1766408812565846800,13.7788466796875,0.5182895660400391,0.5019452571868896,-0.23226630687713623
1766408812580851000,13.793850830078124,0.2720041275024414,0.6699223518371582,-0.18856215476989746
1766408812595854800,13.808854736328126,0.3699474334716797,0.7733356952667236,-0.34917449951171875
1766408812605857500,13.818857421875,0.2955598831176758,0.8289048671722412,-0.38204675912857056
1766408812615860500,13.828860595703125,0.1562662124633789,0.8464078903198242,-0.3067675828933716
1766408812625863000,13.83886279296875,0.07720375061035156,0.8602437973022461,-0.1783497929573059
1766408812640867000,13.8538671875,-0.017530441284179688,0.8974072933197021,-0.14277410507202148
1766408812650869800,13.863869873046875,-0.04216289520263672,0.9386084079742432,-0.09156322479248047
1766408812665873700,13.878873779296875,-0.04598522186279297,0.944021463394165,-0.08302462100982666
1766408812675876400,13.88887646484375,-0.23715496063232422,0.8844172954559326,-0.1711903214454651
1766408812685879000,13.898879150390625,-0.3593626022338867,0.914198637008667,-0.21317875385284424
1766408812695881700,13.9088818359375,-0.5563011169433594,0.9005203247070312,-0.34179049730300903
1766408812705884400,13.918884521484374,-0.7009763717651367,1.1077163219451904,-0.7056779265403748
1766408812715887000,13.92888720703125,-0.6655426025390625,1.2320022583007812,-1.0046265125274658
1766408812730891000,13.94389111328125,-0.1887531280517578,1.1319000720977783,-1.1165485382080078
1766408812740894000,13.95389404296875,-0.05341625213623047,0.8743178844451904,-0.9163278937339783
1766408812750896400,13.963896484375,-0.0016775131225585938,0.7468018531799316,-0.6845869421958923
1766408812765900300,13.978900390625,0.4616727828979492,0.565500020980835,-0.3809444010257721
1766408812775903200,13.9889033203125,0.5928134918212891,0.4777383804321289,-0.10200774669647217
1766408812790907100,14.0039072265625,0.888829231262207,0.44645071029663086,0.11490194499492645
1766408812800909800,14.013909912109375,1.1342792510986328,0.5800645351409912,0.01756228506565094
1766408812810912800,14.023912841796875,1.2942743301391602,0.6643471717834473,-0.1868293583393097
1766408812820915200,14.033915283203125,1.2327642440795898,0.722111701965332,-0.37058910727500916
1766408812830918000,14.04391796875,1.0794343948364258,0.736102819442749,-0.3748011887073517
1766408812840920600,14.053920654296874,0.9336423873901367,0.6548142433166504,-0.18350018560886383
1766408812855924700,14.0689248046875,0.7596607208251953,0.44492340087890625,0.20842230319976807
1766408812865927200,14.07892724609375,0.7107057571411133,0.34613561630249023,0.46033769845962524
1766408812875930000,14.08893017578125,0.7108316421508789,0.2473907470703125,0.6109451651573181
1766408812885932800,14.098932861328125,0.7110462188720703,0.1885676383972168,0.6265451908111572
1766408812895935500,14.108935546875,0.5932121276855469,0.1293342113494873,0.552471399307251
1766408812905938000,14.11893798828125,0.3831520080566406,0.1260077953338623,0.3274153470993042
1766408812920942000,14.133942138671875,0.16002464294433594,0.09783744812011719,-0.03757292032241821
1766408812930944800,14.14394482421875,0.06435012817382812,0.03359842300415039,-0.2953602969646454
1766408812940947500,14.153947509765626,0.016763687133789062,-0.10840272903442383,-0.4515409469604492
1766408812955951400,14.168951416015625,0.2361431121826172,-0.5240226984024048,-0.48668983578681946
1766408812970955500,14.18395556640625,0.9924335479736328,-0.9965120553970337,-0.3693074882030487
1766408812980958200,14.193958251953125,1.2439794540405273,-1.1633274555206299,-0.18557500839233398
1766408812990960600,14.203960693359376,1.2915821075439453,-1.1525369882583618,-0.0007062554359436035
1766408813000963300,14.21396337890625,1.3284072875976562,-1.1105384826660156,0.1812230348587036
1766408813010966300,14.22396630859375,1.2953195571899414,-1.1317448616027832,0.4002690315246582
1766408813020968700,14.23396875,1.1427412033081055,-1.1241087913513184,0.6009681224822998
1766408813035972600,14.24897265625,0.6356925964355469,-0.9501864910125732,0.7529102563858032
1766408813045975600,14.2589755859375,0.2226266860961914,-0.6957430839538574,0.6186916828155518
1766408813055978200,14.268978271484375,-0.1551828384399414,-0.3661794662475586,0.5204818248748779
1766408813065981000,14.27898095703125,-0.5687103271484375,-0.049359798431396484,0.41560912132263184
1766408813075983600,14.288983642578126,-0.9813690185546875,0.03130841255187988,0.2895388603210449
1766408813085986300,14.298986328125,-1.285426139831543,0.002821207046508789,0.19769680500030518
1766408813095989000,14.308989013671875,-1.4903035163879395,-0.09820199012756348,0.05568206310272217
1766408813105991400,14.318991455078125,-1.6793937683105469,0.0037026405334472656,0.3213620185852051
1766408813115994000,14.328994140625,-1.8633618354797363,-0.047870635986328125,0.5478864908218384
1766408813125996800,14.338996826171876,-1.8880281448364258,0.06138014793395996,0.8155463933944702
1766408813135999500,14.34899951171875,-1.861466884613037,0.010252952575683594,0.9574693441390991
1766408813146002200,14.359002197265625,-1.8700456619262695,-0.11480927467346191,1.102491855621338
1766408813156004900,14.3690048828125,-1.8232340812683105,-0.2140028476715088,1.2027257680892944
1766408813171009000,14.384009033203125,-1.7403717041015625,-0.1691880226135254,1.5585851669311523
1766408813181011700,14.39401171875,-1.749669075012207,-0.15355873107910156,1.7216265201568604
1766408813191014100,14.40401416015625,-1.744814395904541,-0.11355018615722656,1.7309868335723877
1766408813206018600,14.4190185546875,-1.8336057662963867,-0.2900104522705078,1.3717341423034668
1766408813216021000,14.42902099609375,-1.6777839660644531,-0.5914137363433838,1.1202032566070557
1766408813226023700,14.439023681640625,-1.166666030883789,-0.9078481197357178,0.8993656635284424
1766408813236026400,14.4490263671875,-0.5441293716430664,-1.05130136013031,0.9226970672607422
1766408813246029000,14.459029052734374,-0.1042642593383789,-1.0481014251708984,1.0948185920715332
1766408813256031700,14.46903173828125,0.2131204605102539,-1.0012809038162231,1.2599260807037354
1766408813271035600,14.48403564453125,0.8663167953491211,-0.9331437349319458,1.3137316703796387
1766408813286039800,14.499039794921876,0.6080551147460938,-1.1302028894424438,0.9023964405059814
1766408813296042500,14.50904248046875,0.5369491577148438,-0.7960494756698608,0.5075030326843262
1766408813306045200,14.519045166015625,1.0473289489746094,-0.24937176704406738,0.913132905960083
1766408813316048000,14.5290478515625,0.2970438003540039,-0.1178739070892334,1.0060861110687256
1766408813331051800,14.5440517578125,0.2625703811645508,-0.0458064079284668,1.2427101135253906
1766408813341054500,14.554054443359375,0.7274580001831055,0.1727454662322998,1.3617898225784302
1766408813351057200,14.56405712890625,0.6529417037963867,0.3131601810455322,1.4532294273376465
1766408813361059800,14.574059814453125,0.4935026168823242,0.6885526180267334,1.530944585800171
1766408813371062500,14.5840625,0.1087026596069336,0.9919109344482422,1.2829800844192505
1766408813381065200,14.594065185546874,-0.3802633285522461,1.1728742122650146,0.7570909261703491
1766408813396069400,14.6090693359375,-0.9686489105224609,1.3044447898864746,0.3889584541320801
1766408813406072000,14.619072021484374,-1.109156608581543,1.3598265647888184,0.4676027297973633
1766408813421076000,14.634075927734376,-0.7970952987670898,1.3468027114868164,0.5868754386901855
1766408813431079000,14.644078857421874,-0.6551303863525391,1.196058750152588,0.5345244407653809
1766408813446082800,14.659082763671876,-0.5550851821899414,1.0489957332611084,0.4031538963317871
1766408813456085200,14.669085205078124,-0.40773773193359375,1.0698978900909424,0.28549909591674805
1766408813466088000,14.679087890625,-0.44899654388427734,1.2228007316589355,0.13952040672302246
1766408813481092000,14.694092041015624,-0.48401737213134766,1.3256585597991943,0.1358630657196045
1766408813496096000,14.709095947265626,-0.4221639633178711,0.9928610324859619,0.062346696853637695
1766408813506098700,14.7190986328125,-0.5063400268554688,0.6964397430419922,0.009883642196655273
1766408813516101400,14.729101318359374,-0.45894908905029297,0.5364291667938232,-0.008844733238220215
1766408813531105300,14.744105224609376,-0.19629383087158203,0.38509273529052734,-0.022886991500854492
1766408813546109400,14.759109375,0.22096538543701172,0.40679359436035156,-0.19202959537506104
1766408813556112100,14.769112060546876,0.3669929504394531,0.41337084770202637,-0.282798171043396
1766408813566114800,14.77911474609375,0.41858768463134766,0.326923131942749,-0.3242924213409424
1766408813581118700,14.79411865234375,0.5577220916748047,0.14276838302612305,-0.41568422317504883
1766408813591121700,14.80412158203125,0.5686206817626953,0.3631894588470459,-0.6529995799064636
1766408813601124000,14.8141240234375,0.9011011123657227,0.4496769905090332,-1.250590443611145
1766408813616128000,14.8291279296875,1.1860628128051758,-0.23370790481567383,-1.4456889629364014
1766408813626131000,14.839130859375,1.9867076873779297,-0.14425277709960938,-1.3152530193328857
1766408813636133600,14.849133544921875,2.822458267211914,0.02867579460144043,-1.2418619394302368
1766408813646136300,14.85913623046875,2.918203353881836,0.19203472137451172,-1.3252251148223877
1766408813656139000,14.869138916015626,2.636873245239258,0.3517024517059326,-1.2249385118484497
1766408813666141700,14.8791416015625,1.2090482711791992,-0.2789306640625,-1.3632336854934692
1766408813676144400,14.889144287109374,0.10631561279296875,-0.664745569229126,-1.5494279861450195
1766408813686147000,14.89914697265625,-0.8208417892456055,-0.6683831214904785,-1.4289579391479492
1766408813696149800,14.909149658203125,-1.2581110000610352,-0.5790090560913086,-1.3640820980072021
1766408813706152400,14.91915234375,-0.9521265029907227,-0.6642179489135742,-1.4594898223876953
1766408813716155100,14.929155029296876,0.12039470672607422,-0.8678523302078247,-1.6557812690734863
1766408813726157800,14.93915771484375,1.2867860794067383,-1.1119842529296875,-1.7199519872665405
1766408813736160500,14.949160400390625,2.5990219116210938,-1.3186928033828735,-1.5034388303756714
1766408813746163200,14.9591630859375,3.4047861099243164,-1.3677759170532227,-1.3998435735702515
1766408813756165600,14.96916552734375,3.686589241027832,-1.3292551040649414,-1.2903064489364624
1766408813771169800,14.984169677734375,2.748354911804199,-1.2486790418624878,-0.9911951422691345
1766408813786174000,14.999174072265625,0.9692087173461914,-0.850428581237793,-0.7596752643585205
1766408813796176400,15.00917626953125,0.15473270416259766,-0.7399215698242188,-0.46832919120788574
1766408813806179000,15.019178955078125,-0.31585025787353516,-0.8040598630905151,-0.1469477266073227
1766408813816182000,15.02918212890625,-0.5232305526733398,-0.7820899486541748,-0.12834058701992035
1766408813826184400,15.039184326171876,-0.631072998046875,-0.9592421054840088,-0.11250820755958557
1766408813841188400,15.054188232421875,-0.5861024856567383,-0.8416199684143066,0.3161359429359436
1766408813851191300,15.06419140625,-0.6396121978759766,-0.6765241622924805,0.23958972096443176
1766408813861194000,15.074194091796874,-0.6979637145996094,-0.3469569683074951,-0.1369042843580246
1766408813871196400,15.084196533203125,-0.7542791366577148,-0.1043405532836914,-0.5287714004516602
1766408813881199000,15.09419921875,-0.6090478897094727,0.03937172889709473,-0.8518456220626831
1766408813891201800,15.104201904296875,-0.3036060333251953,-0.017322778701782227,-1.0400248765945435
1766408813906206000,15.1192060546875,0.738429069519043,-0.6027176380157471,-0.8561698198318481
1766408813916208600,15.129208740234375,1.6613311767578125,-0.9958692789077759,-0.5135225057601929
1766408813926211300,15.13921142578125,2.21962833404541,-1.2870469093322754,0.1535167396068573
1766408813936214000,15.149214111328124,2.409212112426758,-1.379069447517395,0.7786155939102173
1766408813946216700,15.159216796875,2.221217155456543,-1.2508440017700195,1.3858513832092285
1766408813961220600,15.174220703125,1.1901731491088867,-1.054479956626892,2.4225101470947266
1766408813976224800,15.189224853515626,-0.38999080657958984,-1.2289056777954102,2.2405030727386475
1766408813986227200,15.199227294921876,-0.7163810729980469,-0.8256714344024658,1.7240431308746338
1766408814001231400,15.2142314453125,-1.1501951217651367,-0.3916590213775635,0.949626088142395
1766408814021236700,15.23423681640625,-0.4665660858154297,0.14871764183044434,-0.19575047492980957
1766408814031239400,15.244239501953125,-0.2925395965576172,-0.07384896278381348,0.31862369179725647
1766408814041241900,15.254241943359375,-1.2571382522583008,0.06523656845092773,0.5399900674819946
1766408814051244500,15.26424462890625,-1.9055767059326172,0.6115493774414062,0.13901153206825256
1766408814061247500,15.27424755859375,-2.168219566345215,0.8678197860717773,0.36703938245773315
1766408814071250000,15.28425,-1.8237919807434082,0.8631010055541992,1.918189287185669
1766408814086254000,15.299254150390626,-2.094099521636963,1.0050227642059326,2.790440320968628
1766408814101258000,15.314258056640625,-2.2821044921875,1.0908563137054443,3.340686559677124
1766408814111260700,15.3242607421875,-2.1042227745056152,0.3140385150909424,2.4202027320861816
1766408814126264800,15.339264892578125,-1.2831659317016602,-0.16130542755126953,1.1027321815490723
1766408814136267500,15.349267578125,-0.9391279220581055,-0.17000555992126465,0.8132201433181763
