time,seconds_elapsed,z,y,x
1766408799002364400,0.215364501953125,-0.2854500114917755,-0.3572250008583069,0.35103750228881836
1766408799012366800,0.225366943359375,-0.33329999446868896,-0.02488750033080578,0.15716250240802765
1766408799022369500,0.23536962890625,-0.3451249897480011,0.14877499639987946,0.05706249922513962
1766408799032372000,0.2453720703125,-0.33329999446868896,0.3713875114917755,-0.07507500052452087
1766408799042374400,0.25537451171875,-0.28008750081062317,0.3926999866962433,-0.10917499661445618
1766408799052376800,0.265376953125,-0.2087250053882599,0.2521750032901764,-0.09322500228881836
1766408799062379300,0.275379150390625,-0.13626250624656677,0.16046249866485596,-0.03671250119805336
1766408799072382000,0.2853818359375,-0.07878749817609787,0.17861250042915344,0.060224998742341995
1766408799082384100,0.295384033203125,-0.06916250288486481,0.20418749749660492,0.14121249318122864
1766408799092386800,0.30538671875,-0.07026249915361404,0.21381250023841858,0.16885000467300415
1766408799102389200,0.31538916015625,-0.04468749836087227,0.27348750829696655,0.1634874939918518
1766408799112392000,0.325391845703125,-0.023375000804662704,0.35227498412132263,0.1284250020980835
1766408799122394400,0.335394287109375,0.03739999979734421,0.6260374784469604,-0.007974999956786633
1766408799132396800,0.345396728515625,0.2153249979019165,1.2374999523162842,-0.2763749957084656
1766408799142399200,0.355399169921875,0.41346248984336853,2.190924882888794,-0.3755125105381012
1766408799152401700,0.365401611328125,0.4954124987125397,1.608199954032898,-0.557699978351593
1766408799162404400,0.375404296875,0.49334999918937683,1.2716000080108643,-0.5491750240325928
1766408799172406800,0.38540673828125,0.44756248593330383,1.008424997329712,-0.43408748507499695
1766408799182409200,0.3954091796875,0.34636250138282776,0.7133499979972839,-0.26042500138282776
1766408799202414000,0.4154140625,0.22481249272823334,0.2723875045776367,0.18273749947547913
1766408799222419200,0.435419189453125,0.17586250603199005,0.08483749628067017,0.48633748292922974
1766408799232421600,0.445421630859375,0.17270000278949738,0.045512501150369644,0.4916999936103821
1766408799242424000,0.455424072265625,0.2003374993801117,0.04867500066757202,0.4118124842643738
1766408799252426500,0.465426513671875,0.24089999496936798,0.13062499463558197,0.2626250088214874
1766408799262429000,0.475428955078125,0.24406249821186066,0.2862749993801117,0.06875000149011612
1766408799272431600,0.485431640625,0.2153249979019165,0.4012250006198883,-0.11123749613761902
1766408799282434300,0.495434326171875,0.20253749191761017,0.42143750190734863,-0.23704999685287476
1766408799292436700,0.505436767578125,0.2003374993801117,0.42570000886917114,-0.3041499853134155
1766408799302439200,0.515439208984375,0.20886249840259552,0.4375250041484833,-0.3051125109195709
1766408799312441600,0.525441650390625,0.256850004196167,0.4503124952316284,-0.2626250088214874
1766408799322444000,0.535444091796875,0.31968748569488525,0.4992625117301941,-0.2433750033378601
1766408799332446500,0.545446533203125,0.3760625123977661,0.547249972820282,-0.27527499198913574
1766408799342449000,0.555448974609375,0.36973750591278076,0.7548750042915344,-0.06861250102519989
1766408799352451600,0.56545166015625,0.34952500462532043,0.6835125088691711,0.21889999508857727
1766408799362454000,0.5754541015625,0.4006749987602234,0.2564375102519989,0.3979249894618988
1766408799372456400,0.58545654296875,0.47946250438690186,0.052937500178813934,0.4692874848842621
1766408799382459100,0.595459228515625,0.514662504196167,0.17544999718666077,0.3573625087738037
1766408799392461600,0.605461669921875,0.49761250615119934,0.5152124762535095,0.11027500033378601
1766408799402464000,0.615464111328125,0.46021249890327454,0.9125875234603882,-0.24763749539852142
1766408799412466700,0.625466796875,0.4347749948501587,1.3344374895095825,-0.6162750124931335
1766408799422468900,0.63546875,0.42941248416900635,1.6667749881744385,-0.9794124960899353
1766408799432471600,0.645471435546875,0.41772499680519104,1.891587495803833,-1.3065249919891357
1766408799442474000,0.655473876953125,0.3984749913215637,1.7488625049591064,-1.411987543106079
1766408799452476400,0.665476318359375,0.3964124917984009,1.135200023651123,-1.2149499654769897
1766408799462478800,0.675478759765625,0.4507249891757965,0.5291000008583069,-0.7046874761581421
1766408799472481300,0.685481201171875,0.5667750239372253,0.1882375031709671,-0.12086249887943268
1766408799482484000,0.69548388671875,0.6744375228881836,0.0518375001847744,0.359562486410141
1766408799492486700,0.705486572265625,0.755424976348877,0.09129999577999115,0.5928999781608582
1766408799502489000,0.715489013671875,0.8310499787330627,0.1839749962091446,0.5449125170707703
1766408799512491500,0.725491455078125,0.8586875200271606,0.24791249632835388,0.33082500100135803
1766408799522494000,0.735493896484375,0.819225013256073,0.28091248869895935,0.09116250276565552
1766408799532496400,0.745496337890625,0.7660124897956848,0.2574000060558319,-0.13255000114440918
1766408799542498800,0.755498779296875,0.7426375150680542,0.19359999895095825,-0.3051125109195709
1766408799552501500,0.76550146484375,0.7489625215530396,0.12209999561309814,-0.39778751134872437
1766408799562504000,0.77550390625,0.7532249689102173,0.03162499889731407,-0.43188750743865967
1766408799572506400,0.78550634765625,0.7808625102043152,-0.04193750023841858,-0.4212999939918518
1766408799582508800,0.7955087890625,0.8267874717712402,-0.10903749614953995,-0.3807374835014343
1766408799592511200,0.80551123046875,0.8672124743461609,-0.16335000097751617,-0.30841249227523804
1766408799602513700,0.815513671875,0.8820624947547913,-0.2176624983549118,-0.11027500033378601
1766408799612516000,0.82551611328125,0.902412474155426,-0.12182500213384628,0.2274249941110611
1766408799622518800,0.835518798828125,1.0110374689102173,-0.21119999885559082,0.5449125170707703
1766408799632521200,0.845521240234375,1.1739749908447266,-0.35612499713897705,0.6663249731063843
1766408799642524000,0.85552392578125,1.3327875137329102,-0.39338749647140503,0.5821750164031982
1766408799652526300,0.8655263671875,1.3956249952316284,-0.30607500672340393,0.3723500072956085
1766408799662528800,0.87552880859375,1.4286249876022339,-0.24213749170303345,0.12732499837875366
1766408799672531200,0.88553125,1.4925625324249268,-0.2293500006198883,-0.0611874982714653
1766408799682533600,0.89553369140625,1.5692875385284424,-0.15798750519752502,-0.13474999368190765
1766408799692536000,0.9055361328125,1.5457749366760254,-0.022687500342726707,-0.11769999563694
1766408799702538500,0.91553857421875,1.5020500421524048,0.040150001645088196,-0.045237500220537186
1766408799712541200,0.925541259765625,1.4658875465393066,0.09129999577999115,0.022962499409914017
1766408799722543600,0.935543701171875,1.4317874908447266,0.19030000269412994,0.030387500301003456
1766408799732546000,0.945546142578125,1.3508000373840332,0.18603749573230743,-0.03987500071525574
1766408799742548500,0.955548583984375,1.1847000122070312,0.04867500066757202,-0.1859000027179718
1766408799752551000,0.965551025390625,0.9704750180244446,-0.02694999985396862,-0.3297249972820282
1766408799762553300,0.97555322265625,0.7766000032424927,0.10298749804496765,-0.34251248836517334
1766408799772556000,0.98555615234375,0.7180249691009521,0.1391499936580658,-0.25616249442100525
1766408799782558700,0.995558837890625,0.7500625252723694,0.1083500012755394,-0.147537499666214
1766408799792561200,1.00556103515625,0.7851250171661377,0.2798124849796295,-0.08139999955892563
1766408799802563600,1.0155634765625,0.8618500232696533,0.5141124725341797,-0.08249999582767487
1766408799812566000,1.02556591796875,0.9524624943733215,0.6632999777793884,-0.13255000114440918
1766408799822568400,1.035568359375,1.0451375246047974,0.7900750041007996,-0.19538749754428864
1766408799832571000,1.04557080078125,1.0429375171661377,0.6569749712944031,-0.16032500565052032
1766408799842573600,1.055573486328125,0.8896250128746033,0.5631999969482422,-0.011137500405311584
1766408799852576000,1.065575927734375,0.7074375152587891,0.6536750197410583,0.18273749947547913
1766408799862578400,1.075578369140625,0.607337474822998,0.7133499979972839,0.322299987077713
1766408799872580900,1.085580810546875,0.5636125206947327,0.7357624769210815,0.3265624940395355
1766408799882583300,1.095583251953125,0.49857500195503235,0.6536750197410583,0.23594999313354492
1766408799892585700,1.105585693359375,0.4197874963283539,0.5748875141143799,0.14217500388622284
1766408799902588200,1.115588134765625,0.4016374945640564,0.4278999865055084,0.09322500228881836
1766408799912590800,1.1255908203125,0.4240500032901764,0.23828749358654022,0.10711249709129333
1766408799922593000,1.135593017578125,0.4347749948501587,0.13708749413490295,0.14547500014305115
1766408799932595700,1.145595703125,0.41868749260902405,0.16692499816417694,0.15070000290870667
1766408799942598400,1.155598388671875,0.3632749915122986,0.3053874969482422,0.07617499679327011
1766408799952600800,1.165600830078125,0.20350000262260437,0.5546749830245972,-0.058024998754262924
1766408799962603300,1.175603271484375,0.055412501096725464,0.9487500190734863,-0.16458749771118164
1766408799972605700,1.185605712890625,-0.08195000141859055,1.0808874368667603,-0.19442500174045563
1766408799982608100,1.195608154296875,-0.2428250014781952,-0.46584999561309814,0.026124998927116394
1766408799992610600,1.205610595703125,-0.21615000069141388,-1.2552374601364136,0.11990000307559967
1766408800002613000,1.215613037109375,0.002199999988079071,-0.7694500088691711,-0.06338749825954437
1766408800012615700,1.22561572265625,0.09281250089406967,-0.1153625026345253,-0.22852499783039093
1766408800022618000,1.2356181640625,0.007562499959021807,0.381012499332428,-0.19222499430179596
1766408800032620500,1.24562060546875,-0.06916250288486481,0.2712875008583069,0.002749999985098839
1766408800042623000,1.255623046875,-0.040424998849630356,-0.3114374876022339,0.1742125004529953
1766408800052625400,1.26562548828125,0.03629999980330467,-0.9388499855995178,0.22536249458789825
1766408800072630300,1.28563037109375,0.3398999869823456,-0.605412483215332,-0.13255000114440918
1766408800082632700,1.2956328125,0.6179249882698059,0.05609999969601631,-0.6279624700546265
1766408800092635100,1.30563525390625,0.44536250829696655,-0.1036750003695488,-0.8186749815940857
1766408800102638000,1.31563818359375,0.16307500004768372,-0.1494625061750412,-0.8079500198364258
1766408800112640300,1.32564013671875,-0.03506249934434891,-0.057887498289346695,-0.8324249982833862
1766408800122643000,1.335642822265625,-0.22577500343322754,-0.12278749793767929,-0.7877374887466431
1766408800132645400,1.345645263671875,-0.36629998683929443,-0.5479375123977661,-0.7334250211715698
1766408800142647800,1.355647705078125,-0.43353748321533203,-1.0485750436782837,-0.6077499985694885
1766408800152650200,1.365650146484375,-0.47932499647140503,-1.435225009918213,-0.4702500104904175
1766408800162652700,1.375652587890625,-0.636900007724762,-1.463962435722351,-0.31267499923706055
1766408800212665000,1.4256650390625,-0.4324375092983246,-1.002787470817566,-0.07507500052452087
1766408800232670000,1.445669921875,-0.23856249451637268,-1.0070500373840332,-0.10271249711513519
1766408800252674800,1.4656748046875,-0.1564749926328659,-1.1262625455856323,-0.15716250240802765
1766408800302687500,1.5156875,0.23127499222755432,-0.9366499781608582,-0.39778751134872437
1766408800342697500,1.555697509765625,0.19923749566078186,-0.5713124871253967,-0.2849000096321106
1766408800352700000,1.565699951171875,0.1480875015258789,-0.42432498931884766,-0.2157374918460846
1766408800362702300,1.575702392578125,0.057612501084804535,-0.30717501044273376,-0.11550000309944153
1766408800372704800,1.585704833984375,-0.040424998849630356,-0.21119999885559082,-0.03244999796152115
1766408800382707200,1.595707275390625,-0.10436250269412994,-0.11646249890327454,-0.010037500411272049
1766408800392709600,1.605709716796875,-0.1223749965429306,-0.01952499896287918,-0.02708750031888485
1766408800402712300,1.61571240234375,-0.1266375035047531,0.06462500244379044,-0.06544999778270721
1766408800412714500,1.625714599609375,-0.11715000122785568,0.11577499657869339,-0.07933750003576279
1766408800422717200,1.63571728515625,-0.0882750004529953,0.1765500009059906,-0.0611874982714653
1766408800432719600,1.6457197265625,-0.038224998861551285,0.26496249437332153,-0.014299999922513962
1766408800442722000,1.65572216796875,0.009624999947845936,0.37894999980926514,0.018699999898672104
1766408800462727200,1.67572705078125,0.047987498342990875,0.7389249801635742,0.03148749843239784
1766408800482731800,1.695731689453125,0.027775000780820847,1.0032000541687012,0.052799999713897705
1766408800502737000,1.71573681640625,0.02461249940097332,0.7826499938964844,0.07617499679327011
1766408800512739600,1.725739501953125,0.08951249718666077,0.6877750158309937,0.20184999704360962
1766408800622766600,1.8357666015625,0.03519999980926514,0.7602375149726868,0.02722499892115593
1766408800722791400,1.93579150390625,0.19607499241828918,0.8028625249862671,-0.406312495470047
1766408800792808700,2.00580859375,-0.04358749836683273,0.052937500178813934,-0.09955000132322311
1766408800852823600,2.065823486328125,0.03946249932050705,-0.47327500581741333,0.37441250681877136
1766408800867827500,2.080827392578125,-0.1681624948978424,-0.5084750056266785,0.6524375081062317
1766408800877830000,2.090829833984375,-0.2619374990463257,-0.49252501130104065,0.7462124824523926
1766408800907837400,2.12083740234375,-0.18521249294281006,-0.24433749914169312,0.6142125129699707
1766408800917840000,2.13083984375,-0.10436250269412994,-0.11962500214576721,0.5352874994277954
1766408800927842300,2.14084228515625,-0.004124999977648258,0.037950001657009125,0.4553999900817871
1766408800937844700,2.1508447265625,0.10656250268220901,0.1498750001192093,0.37345001101493835
1766408800947847200,2.16084716796875,0.2227499932050705,0.1541374921798706,0.2732124924659729
1766408800957849600,2.170849609375,0.3207874894142151,-0.004537499975413084,0.17957499623298645
1766408800972853200,2.185853271484375,0.4101625084877014,-0.3507624864578247,0.02928750030696392
1766408800982856000,2.19585595703125,0.40383750200271606,-0.6213625073432922,-0.0719124972820282
1766408800997859600,2.210859619140625,0.2844874858856201,-0.9729499816894531,-0.22316250205039978
1766408801007862000,2.220862060546875,0.2153249979019165,-1.0038875341415405,-0.24873749911785126
1766408801022865700,2.23586572265625,0.11192499846220016,-0.8439750075340271,-0.13048750162124634
1766408801032868000,2.2458681640625,0.013887500390410423,-0.613937497138977,-0.014299999922513962
1766408801042870500,2.25587060546875,-0.10958749800920486,-0.4402749836444855,0.10917499661445618
1766408801057874200,2.270874267578125,-0.30250000953674316,-0.34017500281333923,0.2433750033378601
1766408801067876900,2.280876953125,-0.3866499960422516,-0.2901250123977661,0.29672500491142273
1766408801077879600,2.290879638671875,-0.41318750381469727,-0.12925000488758087,0.33934998512268066
1766408801087882000,2.300882080078125,-0.3940750062465668,0.04647500067949295,0.39902499318122864
1766408801097884200,2.31088427734375,-0.3727625012397766,0.15303750336170197,0.48633748292922974
1766408801107886800,2.320886962890625,-0.39943748712539673,0.19882500171661377,0.5917999744415283
1766408801117889300,2.33088916015625,-0.4558124840259552,0.20308749377727509,0.6727874875068665
1766408801127891700,2.3408916015625,-0.4824874997138977,0.13282500207424164,0.7026249766349792
1766408801142895400,2.355895263671875,-0.4782249927520752,-0.5318499803543091,0.49059998989105225
1766408801157899000,2.37089892578125,-0.5601750016212463,-0.7577624917030334,0.2870999872684479
1766408801197909000,2.410908935546875,-0.40796250104904175,-1.045412540435791,-0.09748750180006027
1766408801207911400,2.420911376953125,-0.35571250319480896,-0.9868375062942505,-0.17311249673366547
1766408801217913900,2.430913818359375,-0.30882498621940613,-0.770550012588501,-0.20391249656677246
1766408801227916500,2.44091650390625,-0.2502500116825104,-0.550000011920929,-0.18906250596046448
1766408801237919000,2.4509189453125,-0.2311374992132187,-0.2623499929904938,-0.12196250259876251
1766408801247921400,2.46092138671875,-0.26840001344680786,0.03904999792575836,0.010174999944865704
1766408801257924000,2.470924072265625,-0.32807499170303345,0.2670249938964844,0.18906250596046448
1766408801267926300,2.48092626953125,-0.3983374834060669,0.3363249897956848,0.3723500072956085
1766408801277928700,2.4909287109375,-0.4867500066757202,0.26592499017715454,0.49802500009536743
1766408801287931400,2.500931396484375,-0.5783249735832214,0.15619999170303345,0.5097125172615051
1766408801297933800,2.510933837890625,-0.6646749973297119,0.05719999969005585,0.43092501163482666
1766408801307936300,2.520936279296875,-0.7477250099182129,-0.018424998968839645,0.32436248660087585
1766408801322940200,2.535940185546875,-0.8680375218391418,-0.19208750128746033,0.21889999508857727
1766408801332942600,2.545942626953125,-0.9384375214576721,-0.32945001125335693,0.22536249458789825
1766408801347946200,2.5609462890625,-0.9895874857902527,-0.5031124949455261,0.29878750443458557
1766408801357948700,2.57094873046875,-0.987387478351593,-0.6437749862670898,0.35530000925064087
1766408801367951000,2.580951171875,-0.9692375063896179,-0.7853999733924866,0.37345001101493835
1766408801377953500,2.59095361328125,-0.8883875012397766,-0.8205999732017517,0.32862499356269836
1766408801387956200,2.600956298828125,-0.7977749705314636,-0.9101125001907349,0.2807750105857849
1766408801397958700,2.610958740234375,-0.720087468624115,-0.9366499781608582,0.2264624983072281
1766408801407961000,2.620961181640625,-0.6613749861717224,-0.8962249755859375,0.16142499446868896
1766408801417963500,2.630963623046875,-0.6231499910354614,-0.8621249794960022,0.10175000131130219
1766408801427966000,2.640966064453125,-0.6113250255584717,-0.825962483882904,0.04427500069141388
1766408801442969600,2.655969482421875,-0.635937511920929,-0.6330500245094299,-0.05486249923706055
1766408801457973800,2.670973876953125,-0.7317749857902527,-0.39668750762939453,-0.12196250259876251
1766408801467976200,2.68097607421875,-0.8148249983787537,-0.29122498631477356,-0.14327499270439148
1766408801482979800,2.695979736328125,-0.8830249905586243,-0.18672500550746918,-0.16458749771118164
1766408801492982300,2.705982177734375,-0.8798624873161316,-0.17723749577999115,-0.19016249477863312
1766408801507986000,2.72098583984375,-0.8127624988555908,-0.11219999939203262,-0.27953749895095825
1766408801522989800,2.73598974609375,-0.7189875245094299,-0.02694999985396862,-0.33605000376701355
1766408801532992300,2.7459921875,-0.6784250140190125,-0.0035749999806284904,-0.3030500113964081
1766408801542994700,2.75599462890625,-0.6806250214576721,-0.016362499445676804,-0.21147499978542328
1766408801552997000,2.7659970703125,-0.7391999959945679,-0.05252499878406525,-0.09418749809265137
1766408801562999600,2.77599951171875,-0.792412519454956,-0.0812624990940094,-0.009074999950826168
1766408801573002000,2.786001953125,-0.8062999844551086,-0.09404999762773514,0.022962499409914017
1766408801588006000,2.801005859375,-0.8691374659538269,-0.19318750500679016,0.04001250118017197
1766408801598008300,2.81100830078125,-0.9106624722480774,-0.21656249463558197,0.03671250119805336
1766408801613012200,2.82601220703125,-0.9074999690055847,-0.18576249480247498,0.050599999725818634
1766408801628015900,2.841015869140625,-0.8435624837875366,-0.18466250598430634,0.052799999713897705
1766408801638018300,2.851018310546875,-0.794612467288971,-0.1835625022649765,0.03464999794960022
1766408801648020700,2.861020751953125,-0.7562500238418579,-0.1835625022649765,0.007974999956786633
1766408801658023200,2.871023193359375,-0.7167875170707703,-0.20803749561309814,-0.03135000169277191
1766408801668025600,2.881025634765625,-0.6678375005722046,-0.20377500355243683,-0.09102500230073929
1766408801678028300,2.8910283203125,-0.6198499798774719,-0.164450004696846,-0.1443749964237213
1766408801693032000,2.906031982421875,-0.533637523651123,-0.04936249926686287,-0.1443749964237213
1766408801708035600,2.92103564453125,-0.4302375018596649,0.08703749626874924,-0.037812501192092896
1766408801718038000,2.9310380859375,-0.3568125069141388,0.12209999561309814,0.043175000697374344
1766408801733041700,2.946041748046875,-0.23966249823570251,0.023099999874830246,0.14643749594688416
1766408801748045300,2.96104541015625,-0.15867500007152557,-0.17820000648498535,0.19016249477863312
1766408801758048000,2.971048095703125,-0.1331000030040741,-0.29122498631477356,0.16775000095367432
1766408801768050400,2.981050537109375,-0.12031249701976776,-0.3465000092983246,0.11990000307559967
1766408801778052900,2.991052978515625,-0.1106875017285347,-0.33797499537467957,0.06558749824762344
1766408801788055600,3.0010556640625,-0.11288750171661377,-0.2751374840736389,0.01223750039935112
1766408801798058000,3.01105810546875,-0.1266375035047531,-0.22192500531673431,-0.023924998939037323
1766408801808060400,3.021060302734375,-0.1288374960422516,-0.18892499804496765,-0.02502499893307686
1766408801818062800,3.031062744140625,-0.1288374960422516,-0.1036750003695488,-0.028187500312924385
1766408801828065300,3.041065185546875,-0.14698749780654907,-0.022687500342726707,-0.037812501192092896
1766408801838067700,3.051067626953125,-0.19483749568462372,0.0038499999791383743,-0.04097500070929527
1766408801848070100,3.061070068359375,-0.2428250014781952,0.016637500375509262,-0.06764999777078629
1766408801858072800,3.07107275390625,-0.272662490606308,0.08910000324249268,-0.13048750162124634
1766408801873076500,3.086076416015625,-0.26413750648498535,0.3405874967575073,-0.24021250009536743
1766408801883079000,3.096078857421875,-0.23003749549388885,0.5461499691009521,-0.3371500074863434
1766408801893081600,3.10608154296875,-0.19373749196529388,0.7335624694824219,-0.4628250002861023
1766408801903084000,3.116083984375,-0.14794999361038208,0.867900013923645,-0.5831375122070312
1766408801913086700,3.126086669921875,-0.08511249721050262,0.9563124775886536,-0.6481750011444092
1766408801928090400,3.14109033203125,-0.05211250111460686,0.9487500190734863,-0.6098124980926514
1766408801938092800,3.1510927734375,-0.08304999768733978,0.8625375032424927,-0.5288249850273132
1766408801948095200,3.16109521484375,-0.14272500574588776,0.7570750117301941,-0.4351874887943268
1766408801958097700,3.17109765625,-0.2022625058889389,0.6069250106811523,-0.3328875005245209
1766408801968100000,3.18110009765625,-0.22577500343322754,0.3852750062942505,-0.23485000431537628
1766408801978102500,3.1911025390625,-0.2087250053882599,0.17434999346733093,-0.17201249301433563
1766408801993106400,3.2061064453125,-0.11384999752044678,-0.0035749999806284904,-0.18906250596046448
1766408802003109000,3.216109130859375,-0.03396249935030937,-0.08978749811649323,-0.26358750462532043
1766408802018112800,3.23111279296875,0.08744999766349792,-0.12498749792575836,-0.3115749955177307
1766408802028115200,3.241115234375,0.17902499437332153,-0.09515000134706497,-0.2849000096321106
1766408802053121500,3.26612158203125,0.31226250529289246,-0.09941250085830688,-0.14217500388622284
1766408802063124000,3.2761240234375,0.3345375061035156,-0.13557499647140503,-0.0952875018119812
1766408802073126400,3.28612646484375,0.34636250138282776,-0.20061250030994415,-0.09102500230073929
1766408802103134000,3.316134033203125,0.30799999833106995,-0.36038750410079956,-0.02502499893307686
1766408802118137600,3.3311376953125,0.2759625017642975,-0.3465000092983246,0.03671250119805336
1766408802133141200,3.346141357421875,0.22591249644756317,-0.36355000734329224,0.04743750020861626
1766408802153146400,3.366146484375,0.15771250426769257,-0.42858749628067017,0.060224998742341995
1766408802183153700,3.396153564453125,0.0681999996304512,-0.2677125036716461,0.007974999956786633
1766408802198157600,3.411157470703125,0.03849999979138374,-0.09721250087022781,0.007974999956786633
1766408802213161500,3.426161376953125,0.023512499406933784,0.04867500066757202,0.06228749826550484
1766408802223164000,3.436163818359375,0.0032999999821186066,0.09239999949932098,0.1326874941587448
1766408802238167600,3.45116748046875,-0.03396249935030937,0.054999999701976776,0.2433750033378601
1766408802248170000,3.461169921875,-0.04895000159740448,-0.035475000739097595,0.2796750068664551
1766408802258172700,3.471172607421875,-0.06270000338554382,-0.13887499272823334,0.29782500863075256
1766408802268175000,3.481175048828125,-0.08304999768733978,-0.2059749960899353,0.2998875081539154
1766408802283179000,3.496178955078125,-0.13846249878406525,-0.34017500281333923,0.32339999079704285
1766408802298182700,3.5111826171875,-0.20762500166893005,-0.5105375051498413,0.38087499141693115
1766408802308185000,3.52118505859375,-0.24488750100135803,-0.5798375010490417,0.4096125066280365
1766408802318187800,3.531187744140625,-0.26083749532699585,-0.5787374973297119,0.4212999939918518
1766408802328190200,3.541190185546875,-0.25657498836517334,-0.5255249738693237,0.41497498750686646
1766408802338192600,3.551192626953125,-0.2470874935388565,-0.43821248412132263,0.39998748898506165
1766408802348195000,3.561195068359375,-0.23430000245571136,-0.3273875117301941,0.3712500035762787
1766408802363198700,3.57619873046875,-0.1746249943971634,-0.21656249463558197,0.27857500314712524
1766408802378202600,3.59120263671875,-0.09679999947547913,-0.23154999315738678,0.1634874939918518
1766408802388205000,3.601205078125,-0.047849997878074646,-0.33371248841285706,0.07837499678134918
1766408802398207500,3.61120751953125,-0.02969999983906746,-0.46268749237060547,-0.009074999950826168
1766408802408210200,3.621210205078125,-0.03932499885559082,-0.5937250256538391,-0.10271249711513519
1766408802418212600,3.631212646484375,-0.06696250289678574,-0.7396125197410583,-0.2092749923467636
1766408802428215000,3.641215087890625,-0.09253749996423721,-0.8856375217437744,-0.3147374987602234
1766408802438217500,3.651217529296875,-0.1214125007390976,-0.9953625202178955,-0.4298250079154968
1766408802448220200,3.66122021484375,-0.1522125005722046,-1.012274980545044,-0.5714499950408936
1766408802458222300,3.671222412109375,-0.1671999990940094,-0.8567624688148499,-0.7430499792098999
1766408802473226200,3.686226318359375,-0.1564749926328659,-0.31033748388290405,-0.9347249865531921
1766408802483229000,3.69622900390625,-0.14272500574588776,0.0668250024318695,-0.9187750220298767
1766408802493231400,3.7062314453125,-0.1331000030040741,0.3139125108718872,-0.7866374850273132
1766408802508235000,3.721235107421875,-0.18424999713897705,0.3255999982357025,-0.49898749589920044
1766408802518237400,3.731237548828125,-0.2704625129699707,0.1050499975681305,-0.30195000767707825
1766408802528239900,3.741239990234375,-0.341825008392334,-0.16651250422000885,-0.15289999544620514
1766408802543243800,3.756243896484375,-0.4185499846935272,-0.3987500071525574,-0.0611874982714653
1766408802553246200,3.76624609375,-0.44302499294281006,-0.36781248450279236,-0.07823749631643295
1766408802563249000,3.776248779296875,-0.43353748321533203,-0.19744999706745148,-0.133650004863739
1766408802578252500,3.79125244140625,-0.3833499848842621,0.1658249944448471,-0.23278750479221344
1766408802588255000,3.8012548828125,-0.3460874855518341,0.37248748540878296,-0.29768750071525574
1766408802598257400,3.81125732421875,-0.30250000953674316,0.47052499651908875,-0.35199999809265137
1766408802613261300,3.82626123046875,-0.22151249647140503,0.4449499845504761,-0.38403749465942383
1766408802623263700,3.836263671875,-0.18521249294281006,0.40878748893737793,-0.34677499532699585
1766408802633266200,3.84626611328125,-0.17778749763965607,0.3735874891281128,-0.2593249976634979
1766408802648270000,3.86127001953125,-0.2129874974489212,0.34581249952316284,-0.12306249886751175
1766408802658272500,3.8712724609375,-0.23966249823570251,0.33838748931884766,-0.06338749825954437
1766408802668275200,3.881275146484375,-0.2576749920845032,0.31171250343322754,-0.037812501192092896
1766408802678277600,3.891277587890625,-0.26083749532699585,0.27665001153945923,-0.050599999725818634
1766408802688280000,3.901280029296875,-0.25657498836517334,0.21271249651908875,-0.07397499680519104
1766408802698282500,3.911282470703125,-0.25561249256134033,0.1381874978542328,-0.0719124972820282
1766408802708285000,3.921284912109375,-0.273624986410141,0.07741250097751617,-0.014299999922513962
1766408802718287600,3.93128759765625,-0.3162499964237213,0.023099999874830246,0.09858749806880951
1766408802728290000,3.9412900390625,-0.35997501015663147,-0.002474999986588955,0.21889999508857727
1766408802738292500,3.95129248046875,-0.3918749988079071,-0.018424998968839645,0.30098751187324524
1766408802748295200,3.961295166015625,-0.4217124879360199,-0.03231250122189522,0.3328875005245209
1766408802758297600,3.971297607421875,-0.4324375092983246,-0.01732499897480011,0.29026249051094055
1766408802768300000,3.981300048828125,-0.4111250042915344,-0.002474999986588955,0.18906250596046448
1766408802788305200,4.00130517578125,-0.32477501034736633,0.03698749840259552,-0.02708750031888485
1766408802798307600,4.0113076171875,-0.272662490606308,0.08277499675750732,-0.08992499858140945
1766408802808310000,4.02131005859375,-0.21615000069141388,0.13598750531673431,-0.11879999935626984
1766408802818312700,4.031312744140625,-0.15757499635219574,0.15619999170303345,-0.10175000131130219
1766408802828315100,4.041315185546875,-0.10326249897480011,0.11783749610185623,-0.04413750022649765
1766408802838317600,4.051317626953125,-0.07026249915361404,0.05609999969601631,0.043175000697374344
1766408802848320300,4.0613203125,-0.08937499672174454,-0.02488750033080578,0.14217500388622284
1766408802858322700,4.07132275390625,-0.14162500202655792,-0.10477499663829803,0.2529999911785126
1766408802868325000,4.0813251953125,-0.19277499616146088,-0.14093749225139618,0.3755125105381012
1766408802888330200,4.101330322265625,-0.2843500077724457,-0.0812624990940094,0.5554999709129333
1766408802903334100,4.116334228515625,-0.3269749879837036,-0.04619999974966049,0.5363875031471252
1766408802918337800,4.131337890625,-0.3375625014305115,-0.018424998968839645,0.40851250290870667
1766408802928340200,4.14134033203125,-0.32903748750686646,0.03478749841451645,0.32436248660087585
1766408802938343000,4.151343017578125,-0.318450003862381,0.15303750336170197,0.24667499959468842
1766408802948345300,4.161345458984375,-0.3110249936580658,0.2798124849796295,0.19126249849796295
1766408802963349000,4.176348876953125,-0.281187504529953,0.3704249858856201,0.1933249980211258
1766408802978353000,4.191352783203125,-0.2545124888420105,0.36822500824928284,0.27431249618530273
1766408802988355300,4.201355224609375,-0.25657498836517334,0.28517499566078186,0.32010000944137573
1766408802998357800,4.211357666015625,-0.2769249975681305,0.1839749962091446,0.3180375099182129
1766408803013361700,4.226361572265625,-0.3077250123023987,0.12540000677108765,0.2199999988079071
1766408803028365300,4.241365234375,-0.30992498993873596,0.15523749589920044,0.02722499892115593
1766408803038368000,4.251367919921875,-0.2843500077724457,0.12856249511241913,-0.10381250083446503
1766408803053371600,4.26637158203125,-0.17998750507831573,0.052937500178813934,-0.24227499961853027
1766408803068375600,4.28137548828125,-0.030799999833106995,0.012374999932944775,-0.28600001335144043
1766408803088380400,4.30138037109375,0.08524999767541885,-0.057887498289346695,-0.21037499606609344
1766408803098382800,4.3113828125,0.12044999748468399,-0.13667500019073486,-0.16885000467300415
1766408803108385500,4.321385498046875,0.15565000474452972,-0.2102375030517578,-0.15812499821186066
1766408803123389200,4.33638916015625,0.19923749566078186,-0.2102375030517578,-0.1933249980211258
1766408803138393000,4.35139306640625,0.2387000024318695,-0.07919999957084656,-0.2274249941110611
1766408803148395500,4.3613955078125,0.2578125,0.02199999988079071,-0.2209624946117401
1766408803158398000,4.37139794921875,0.2770625054836273,0.12113749980926514,-0.19112500548362732
1766408803168400400,4.381400390625,0.2983750104904175,0.1775124967098236,-0.14863750338554382
1766408803183404500,4.396404541015625,0.2919124960899353,0.1882375031709671,-0.03891250118613243
1766408803198408200,4.411408203125,0.2578125,0.14767499268054962,0.07933750003576279
1766408803208410600,4.42141064453125,0.24296249449253082,0.15193749964237213,0.12196250259876251
1766408803218413000,4.4314130859375,0.2535499930381775,0.20308749377727509,0.116737499833107
1766408803228415700,4.441415771484375,0.2994749844074249,0.28091248869895935,0.07301250100135803
1766408803238418400,4.45141845703125,0.36547499895095825,0.34154999256134033,0.018699999898672104
1766408803253422000,4.466422119140625,0.45704999566078186,0.4534749984741211,-0.010037500411272049
1766408803268425700,4.48142578125,0.514662504196167,0.5717250108718872,0.10395000129938126
1766408803283429600,4.4964296875,0.5571500062942505,0.5461499691009521,0.32339999079704285
1766408803293432300,4.506432373046875,0.5667750239372253,0.45663750171661377,0.43312498927116394
1766408803308436000,4.52143603515625,0.524150013923645,0.2872374951839447,0.4553999900817871
1766408803318438400,4.5314384765625,0.4624125063419342,0.1658249944448471,0.3936625123023987
1766408803333442000,4.546442138671875,0.3643749952316284,0.015675000846385956,0.24557499587535858
1766408803348446000,4.561446044921875,0.2909500002861023,-0.08978749811649323,0.06558749824762344
1766408803363449600,4.57644970703125,0.22907499969005585,-0.18576249480247498,-0.0835999995470047
1766408803373452300,4.586452392578125,0.19607499241828918,-0.2358125001192093,-0.1518000066280365
1766408803383454700,4.596454833984375,0.1779250055551529,-0.2677125036716461,-0.19112500548362732
1766408803393457400,4.60645751953125,0.17476250231266022,-0.2708750069141388,-0.20295000076293945
1766408803408461000,4.6214609375,0.16087499260902405,-0.201712504029274,-0.17627499997615814
1766408803418463500,4.63146337890625,0.13750000298023224,-0.13887499272823334,-0.12402500212192535
1766408803428466000,4.6414658203125,0.10449999570846558,-0.08236250281333923,-0.04207500070333481
1766408803438468600,4.651468505859375,0.057612501084804535,-0.03657500073313713,0.0644875019788742
1766408803448471300,4.66147119140625,0.008662499487400055,-0.02914999984204769,0.15496249496936798
1766408803458473700,4.6714736328125,-0.040424998849630356,-0.06531249731779099,0.2157374918460846
1766408803473477400,4.686477294921875,-0.09363749623298645,-0.15482500195503235,0.26372501254081726
1766408803488481300,4.701481201171875,-0.10326249897480011,-0.2623499929904938,0.31267499923706055
1766408803498483700,4.711483642578125,-0.09583749622106552,-0.30717501044273376,0.3564000129699707
1766408803508486400,4.721486328125,-0.08401250094175339,-0.31776249408721924,0.40851250290870667
1766408803518488800,4.73148876953125,-0.07232499867677689,-0.3123999834060669,0.44577500224113464
1766408803528491300,4.7414912109375,-0.06173750013113022,-0.29438748955726624,0.4362874925136566
1766408803538493700,4.75149365234375,-0.045787498354911804,-0.2623499929904938,0.3531000018119812
1766408803548496400,4.761496337890625,-0.018012499436736107,-0.24323749542236328,0.19978749752044678
1766408803563500000,4.7765,0.02667500078678131,-0.31033748388290405,-0.03244999796152115
1766408803573502500,4.78650244140625,0.03203750029206276,-0.39022499322891235,-0.1060125008225441
1766408803583505200,4.796505126953125,0.002199999988079071,-0.48510000109672546,-0.0952875018119812
1766408803593507800,4.8065078125,-0.06173750013113022,-0.5531625151634216,-0.023924998939037323
1766408803608511500,4.821511474609375,-0.16073749959468842,-0.5724124908447266,0.13474999368190765
1766408803618514000,4.831513916015625,-0.1970375031232834,-0.5351499915122986,0.2316875010728836
1766408803628516400,4.841516357421875,-0.21078750491142273,-0.4637874960899353,0.28929999470710754
1766408803638519000,4.85151904296875,-0.21188749372959137,-0.3465000092983246,0.25519999861717224
1766408803648521500,4.861521484375,-0.20982499420642853,-0.22398750483989716,0.13791249692440033
1766408803658524200,4.871524169921875,-0.2055625021457672,-0.1270499974489212,-0.026124998927116394
1766408803673527800,4.88652783203125,-0.20652499794960022,-0.07177499681711197,-0.21779999136924744
1766408803683530500,4.896530517578125,-0.21504999697208405,-0.07493750005960464,-0.2626250088214874
1766408803693533000,4.906532958984375,-0.22783750295639038,-0.11110000312328339,-0.24447499215602875
1766408803708536800,4.921536865234375,-0.26413750648498535,-0.17723749577999115,-0.1358499974012375
1766408803723540700,4.936540771484375,-0.31308749318122864,-0.27197501063346863,-0.010037500411272049
1766408803738544400,4.95154443359375,-0.3482874929904938,-0.29548749327659607,0.0644875019788742
1766408803748547000,4.961547119140625,-0.3525499999523163,-0.24529999494552612,0.06338749825954437
1766408803763550700,4.97655078125,-0.3482874929904938,-0.07493750005960464,-0.013337500393390656
1766408803773553400,4.986553466796875,-0.3451249897480011,0.0518375001847744,-0.0835999995470047
1766408803788557000,5.00155712890625,-0.3312374949455261,0.2180749922990799,-0.19868749380111694
1766408803798559500,5.0115595703125,-0.30882498621940613,0.30002498626708984,-0.26468750834465027
1766408803808562000,5.02156201171875,-0.282150000333786,0.3363249897956848,-0.3051125109195709
1766408803818564600,5.031564697265625,-0.25561249256134033,0.3278000056743622,-0.3221625089645386
1766408803828567300,5.0415673828125,-0.23539999127388,0.260699987411499,-0.31790000200271606
1766408803843571000,5.056571044921875,-0.2172500044107437,0.04867500066757202,-0.2870999872684479
1766408803858574800,5.071574951171875,-0.21834999322891235,-0.14409999549388885,-0.27527499198913574
1766408803873578500,5.08657861328125,-0.23746250569820404,-0.2250874936580658,-0.2529999911785126
1766408803883581200,5.096581298828125,-0.26936250925064087,-0.2560249865055084,-0.2124374955892563
1766408803893583600,5.10658349609375,-0.30992498993873596,-0.2708750069141388,-0.15812499821186066
1766408803903586300,5.11658642578125,-0.35887500643730164,-0.2751374840736389,-0.09844999760389328
1766408803913588700,5.126588623046875,-0.40149998664855957,-0.2708750069141388,-0.037812501192092896
1766408803923591200,5.136591064453125,-0.41964998841285706,-0.2517625093460083,0.013337500393390656
1766408803933593600,5.146593505859375,-0.4100250005722046,-0.195250004529953,0.03355000168085098
1766408803943596300,5.15659619140625,-0.3759250044822693,-0.10683749616146088,0.03258749842643738
1766408803953598700,5.1665986328125,-0.3227125108242035,0.0038499999791383743,0.03355000168085098
1766408803963601400,5.176601318359375,-0.2619374990463257,0.10408750176429749,0.05376249924302101
1766408803973603800,5.186603759765625,-0.22151249647140503,0.16692499816417694,0.09858749806880951
1766408803988607700,5.201607666015625,-0.21078750491142273,0.20102499425411224,0.18809999525547028
1766408804003611600,5.216611572265625,-0.22261250019073486,0.16802500188350677,0.24131250381469727
1766408804013614000,5.226614013671875,-0.23539999127388,0.12636250257492065,0.21889999508857727
1766408804023616500,5.236616455078125,-0.25987499952316284,0.06998749822378159,0.17104999721050262
1766408804033619200,5.246619140625,-0.281187504529953,0.025162499397993088,0.11990000307559967
1766408804043621600,5.25662158203125,-0.296037495136261,0.00494999997317791,0.09322500228881836
1766408804053624000,5.2666240234375,-0.304562509059906,0.007149999961256981,0.0943249985575676
1766408804063626800,5.276626708984375,-0.29823750257492065,0.026262499392032623,0.11137499660253525
1766408804073629400,5.28662939453125,-0.2747249901294708,0.06462500244379044,0.13158750534057617
1766408804088633000,5.301633056640625,-0.2246749997138977,0.1498750001192093,0.1816374957561493
1766408804098635500,5.311635498046875,-0.20019999146461487,0.17861250042915344,0.21367499232292175
1766408804108638200,5.32163818359375,-0.19167499244213104,0.20528750121593475,0.21147499978542328
1766408804118640600,5.331640625,-0.1979999989271164,0.2232999950647354,0.1742125004529953
1766408804133644500,5.34664453125,-0.21834999322891235,0.25107499957084656,0.07081250101327896
1766408804143647200,5.356647216796875,-0.21931250393390656,0.28833749890327454,-0.006874999962747097
1766408804153649700,5.366649658203125,-0.21504999697208405,0.329862505197525,-0.06338749825954437
1766408804163652000,5.376652099609375,-0.20762500166893005,0.37564998865127563,-0.08249999582767487
1766408804178656000,5.391656005859375,-0.2055625021457672,0.40232500433921814,-0.037812501192092896
1766408804188658400,5.401658447265625,-0.21078750491142273,0.42253750562667847,-0.018562499433755875
1766408804198661000,5.4116611328125,-0.2204124927520752,0.42143750190734863,-0.06655000150203705
1766408804208663600,5.42166357421875,-0.2320999950170517,0.38843750953674316,-0.17627499997615814
1766408804218666200,5.431666259765625,-0.22577500343322754,0.3704249858856201,-0.3190000057220459
1766408804228668700,5.441668701171875,-0.1970375031232834,0.3704249858856201,-0.4596624970436096
1766408804243672300,5.45667236328125,-0.1331000030040741,0.329862505197525,-0.604449987411499
1766408804253674800,5.4666748046875,-0.07548750191926956,0.31171250343322754,-0.6513375043869019
1766408804263677700,5.476677734375,-0.010587500408291817,0.3170749843120575,-0.6598625183105469
1766408804278681300,5.491681396484375,0.08524999767541885,0.33096250891685486,-0.5885000228881836
1766408804293685000,5.50668505859375,0.15138749778270721,0.22550000250339508,-0.42239999771118164
1766408804303687700,5.516687744140625,0.16513749957084656,0.08387500047683716,-0.3008500039577484
1766408804318691600,5.531691650390625,0.1704999953508377,-0.1270499974489212,-0.17627499997615814
1766408804328694000,5.541694091796875,0.1812250018119812,-0.22082500159740448,-0.14863750338554382
1766408804343698000,5.556697998046875,0.20886249840259552,-0.24529999494552612,-0.14533749222755432
1766408804353700400,5.566700439453125,0.2461249977350235,-0.18246249854564667,-0.1293874979019165
1766408804368704000,5.5817041015625,0.3367374837398529,-0.07383749634027481,-0.05596249923110008
1766408804378706700,5.591706787109375,0.4016374945640564,-0.03231250122189522,0.0037124999798834324
1766408804388709400,5.60170947265625,0.4507249891757965,-0.022687500342726707,0.043175000697374344
1766408804398711800,5.6117119140625,0.478362500667572,-0.055687498301267624,0.06228749826550484
1766408804408714500,5.621714599609375,0.507099986076355,-0.09624999761581421,0.04743750020861626
1766408804428719400,5.64171923828125,0.608299970626831,-0.14630000293254852,-0.045237500220537186
1766408804448724500,5.661724365234375,0.7393375039100647,-0.03973750025033951,-0.16142499446868896
1766408804458727200,5.67172705078125,0.7884249687194824,0.04977500066161156,-0.20817500352859497
1766408804468729600,5.6817294921875,0.810699999332428,0.11261250078678131,-0.23375000059604645
1766408804478732300,5.691732177734375,0.8118000030517578,0.1317249983549118,-0.23375000059604645
1766408804488734700,5.701734619140625,0.7936499714851379,0.12636250257492065,-0.20611250400543213
1766408804498737200,5.711737060546875,0.7478625178337097,0.09336250275373459,-0.147537499666214
1766408804513741300,5.7267412109375,0.6542249917984009,-0.028049999848008156,-0.03987500071525574
1766408804523743700,5.73674365234375,0.5955125093460083,-0.13241249322891235,-0.0015124999918043613
1766408804533746200,5.74674609375,0.551925003528595,-0.18892499804496765,-0.010037500411272049
1766408804548750000,5.76175,0.5018749833106995,-0.1676124930381775,-0.05692499876022339
1766408804558752800,5.771752685546875,0.46777498722076416,-0.11110000312328339,-0.08676250278949738
1766408804568755200,5.781755126953125,0.4251500070095062,-0.035475000739097595,-0.09638749808073044
1766408804578757600,5.791757568359375,0.3750999867916107,0.01347499992698431,-0.0728750005364418
1766408804588760300,5.80176025390625,0.3260124921798706,0.018837500363588333,-0.03464999794960022
1766408804598763000,5.811762939453125,0.28558748960494995,-0.0002749999985098839,-0.0015124999918043613
1766408804608765400,5.821765380859375,0.2642749845981598,-0.03863750025629997,0.02502499893307686
1766408804618768000,5.831767822265625,0.2685374915599823,-0.09624999761581421,0.04633750021457672
1766408804628770600,5.8417705078125,0.2824249863624573,-0.15262499451637268,0.07411249727010727
1766408804648775700,5.861775634765625,0.3302749991416931,-0.12815000116825104,0.1326874941587448
1766408804663779600,5.876779541015625,0.3302749991416931,-0.03341250121593475,0.1975875049829483
1766408804673782000,5.886781982421875,0.30896249413490295,0.02199999988079071,0.24447499215602875
1766408804688786000,5.901785888671875,0.2578125,-0.01952499896287918,0.2913624942302704
1766408804698788400,5.911788330078125,0.21422499418258667,-0.10903749614953995,0.2881999909877777
1766408804708791000,5.921791015625,0.16733749210834503,-0.22082500159740448,0.26372501254081726
1766408804718793500,5.93179345703125,0.1354375034570694,-0.27623748779296875,0.2125750035047531
1766408804728796200,5.941796142578125,0.12361250072717667,-0.28792500495910645,0.13901250064373016
1766408804738798600,5.951798583984375,0.11412499845027924,-0.2815999984741211,0.05486249923706055
1766408804748801300,5.96180126953125,0.1023000031709671,-0.2475000023841858,-0.03135000169277191
1766408804763805200,5.97680517578125,0.08208750188350677,-0.13887499272823334,-0.10807500034570694
1766408804773807600,5.9868076171875,0.06393750011920929,-0.05142499879002571,-0.11233749985694885
1766408804788811500,6.0018115234375,0.016087500378489494,0.009212499484419823,-0.08676250278949738
1766408804798814000,6.01181396484375,-0.047849997878074646,-0.01732499897480011,-0.06971249729394913
1766408804808816600,6.021816650390625,-0.14272500574588776,-0.10683749616146088,-0.06228749826550484
1766408804818819000,6.031819091796875,-0.24392500519752502,-0.20377500355243683,-0.07507500052452087
1766408804828821500,6.041821533203125,-0.3227125108242035,-0.24860000610351562,-0.11550000309944153
1766408804843825400,6.056825439453125,-0.37386250495910645,-0.25382500886917114,-0.2124374955892563
1766408804858829300,6.071829345703125,-0.3759250044822693,-0.17820000648498535,-0.2923249900341034
1766408804868831700,6.081831787109375,-0.35997501015663147,-0.07383749634027481,-0.29768750071525574
1766408804878834400,6.09183447265625,-0.3429250121116638,-0.022687500342726707,-0.2572624981403351
1766408804888837000,6.101837158203125,-0.33550000190734863,-0.050462499260902405,-0.1868624985218048
1766408804898839600,6.111839599609375,-0.34402498602867126,-0.13241249322891235,-0.08566249907016754
1766408804918844400,6.131844482421875,-0.4164874851703644,-0.3166624903678894,0.11990000307559967
1766408804938849800,6.151849853515625,-0.4973374903202057,-0.3796375095844269,0.23498749732971191
1766408804958855000,6.17185498046875,-0.5644375085830688,-0.2890250086784363,0.2083124965429306
1766408804968857300,6.181857421875,-0.5698000192642212,-0.23045000433921814,0.13474999368190765
1766408804983861000,6.196861083984375,-0.5219500064849854,-0.11852499842643738,-0.02502499893307686
1766408804998865000,6.211864990234375,-0.45691248774528503,0.07741250097751617,-0.16554999351501465
1766408805008867300,6.221867431640625,-0.4452250003814697,0.19786250591278076,-0.2157374918460846
1766408805018870000,6.2318701171875,-0.44632500410079956,0.2595999836921692,-0.23801249265670776
1766408805028872400,6.24187255859375,-0.44948750734329224,0.24681249260902405,-0.24131250381469727
1766408805038875100,6.251875244140625,-0.4622749984264374,0.15619999170303345,-0.2391124963760376
1766408805048877600,6.261877685546875,-0.4739624857902527,0.008112499490380287,-0.22316250205039978
1766408805063881500,6.276881591796875,-0.4441249966621399,-0.195250004529953,-0.2050125002861023
1766408805073884200,6.28688427734375,-0.39943748712539673,-0.29438748955726624,-0.20721249282360077
1766408805088888000,6.30188818359375,-0.34402498602867126,-0.3583250045776367,-0.21037499606609344
1766408805108893000,6.321892822265625,-0.3610749840736389,-0.33274999260902405,-0.16775000095367432
1766408805128898000,6.34189794921875,-0.4589749872684479,-0.3188624978065491,-0.09638749808073044
1766408805138900700,6.351900634765625,-0.49953749775886536,-0.30387499928474426,-0.08043749630451202
1766408805148903400,6.3619033203125,-0.5219500064849854,-0.2741749882698059,-0.0719124972820282
1766408805158905900,6.37190576171875,-0.5197499990463257,-0.21972499787807465,-0.07507500052452087
1766408805168908300,6.381908203125,-0.49101248383522034,-0.15798750519752502,-0.08676250278949738
1766408805183912400,6.396912353515625,-0.3940750062465668,-0.037675000727176666,-0.11659999936819077
1766408805193915000,6.406914794921875,-0.3312374949455261,0.05719999969005585,-0.13474999368190765
1766408805203917300,6.416917236328125,-0.3110249936580658,0.11893749982118607,-0.13255000114440918
1766408805218921500,6.43192138671875,-0.34402498602867126,0.09336250275373459,-0.07933750003576279
1766408805228924000,6.441923828125,-0.3770250082015991,0.047575000673532486,-0.02928750030696392
1766408805238926300,6.45192626953125,-0.40039998292922974,-0.008799999952316284,0.01223750039935112
1766408805248929000,6.461928955078125,-0.40796250104904175,-0.045099999755620956,0.04633750021457672
1766408805278936800,6.491936767578125,-0.2971374988555908,0.06146249920129776,0.15070000290870667
1766408805288939300,6.501939208984375,-0.2363625019788742,0.10408750176429749,0.17531250417232513
1766408805303943000,6.51694287109375,-0.16183750331401825,0.11687500029802322,0.19126249849796295
1766408805313945600,6.526945556640625,-0.14368750154972076,0.1093124970793724,0.17311249673366547
1766408805323948300,6.5369482421875,-0.1405249983072281,0.1083500012755394,0.13791249692440033
1766408805333950700,6.54695068359375,-0.15125000476837158,0.12209999561309814,0.09116250276565552
1766408805343953400,6.556953369140625,-0.1681624948978424,0.1732500046491623,0.035750001668930054
1766408805353955800,6.566955810546875,-0.18851250410079956,0.23608750104904175,-0.015399999916553497
1766408805368959700,6.581959716796875,-0.23856249451637268,0.33838748931884766,-0.05376249924302101
1766408805378962200,6.591962158203125,-0.2662000060081482,0.45980000495910645,-0.050599999725818634
1766408805388964900,6.60196484375,-0.273624986410141,0.5961999893188477,-0.04413750022649765
1766408805398967600,6.611967529296875,-0.273624986410141,0.7016624808311462,-0.05376249924302101
1766408805408970000,6.621969970703125,-0.27156248688697815,0.7463499903678894,-0.08470000326633453
1766408805423974000,6.636973876953125,-0.23430000245571136,0.7517125010490417,-0.17201249301433563
1766408805433976300,6.646976318359375,-0.18314999341964722,0.7325999736785889,-0.24447499215602875
1766408805443979000,6.65697900390625,-0.12347500026226044,0.6654999852180481,-0.3051125109195709
1766408805458983000,6.67198291015625,-0.06696250289678574,0.49293750524520874,-0.33178749680519104
1766408805473986600,6.686986572265625,-0.04468749836087227,0.2820124924182892,-0.28380000591278076
1766408805488990200,6.701990234375,-0.019112499430775642,0.1381874978542328,-0.2092749923467636
1766408805498993000,6.711992919921875,0.012924999929964542,0.08910000324249268,-0.1592250019311905
1766408805513997000,6.7269970703125,0.10449999570846558,0.05926249921321869,-0.14217500388622284
1766408805523999500,6.73699951171875,0.17902499437332153,0.0742499977350235,-0.1859000027179718
1766408805534002000,6.747001953125,0.2535499930381775,0.09336250275373459,-0.24227499961853027
1766408805544004600,6.757004638671875,0.3217499852180481,0.08057499676942825,-0.24021250009536743
1766408805559008500,6.772008544921875,0.40383750200271606,0.03368749842047691,-0.11123749613761902
1766408805569011000,6.782010986328125,0.41772499680519104,-0.0056374999694526196,0.018699999898672104
1766408805584014800,6.797014892578125,0.38142499327659607,-0.1303499937057495,0.19016249477863312
1766408805599018800,6.812018798828125,0.3526875078678131,-0.2410375028848648,0.25616249442100525
1766408805614022700,6.827022705078125,0.35475000739097595,-0.3273875117301941,0.2274249941110611
1766408805624025000,6.837025146484375,0.3793624937534332,-0.36258751153945923,0.15826250612735748
1766408805634027800,6.84702783203125,0.4240500032901764,-0.3689124882221222,0.09116250276565552
1766408805644030500,6.857030517578125,0.4890874922275543,-0.3199625015258789,0.052799999713897705
1766408805659034000,6.8720341796875,0.5721374750137329,-0.18150000274181366,0.01979999989271164
1766408805669036800,6.882036865234375,0.5934500098228455,-0.12278749793767929,0.018699999898672104
1766408805679039200,6.892039306640625,0.5880874991416931,-0.12182500213384628,0.05912499874830246
1766408805689041700,6.902041748046875,0.5763999819755554,-0.16541250050067902,0.11879999935626984
1766408805699044400,6.91204443359375,0.5530250072479248,-0.21656249463558197,0.15716250240802765
1766408805709047000,6.922047119140625,0.507099986076355,-0.2815999984741211,0.15826250612735748
1766408805729052200,6.94205224609375,0.37400001287460327,-0.4221250116825104,0.09116250276565552
1766408805739054600,6.9520546875,0.3590124845504761,-0.41359999775886536,0.12099999934434891
1766408805754058200,6.967058349609375,0.35062500834465027,-0.0695749968290329,-0.0057749999687075615
1766408805764061000,6.97706103515625,0.31968748569488525,0.0006874999962747097,-0.0952875018119812
1766408805774063600,6.987063720703125,0.3100624978542328,-0.09624999761581421,-0.1751749962568283
1766408805789067500,7.002067626953125,0.3302749991416931,-0.2656500041484833,-0.20184999704360962
1766408805799070000,7.012070068359375,0.2983750104904175,-0.31459999084472656,-0.14643749594688416
1766408805814073900,7.027073974609375,0.219587504863739,-0.14630000293254852,-0.02928750030696392
1766408805824076300,7.037076171875,0.12264999747276306,0.007149999961256981,0.03355000168085098
1766408805839080200,7.052080078125,-0.019112499430775642,0.15097500383853912,0.11343749612569809
1766408805849083000,7.062082763671875,-0.0648999959230423,0.22756250202655792,0.1634874939918518
1766408805859085300,7.072085205078125,-0.0873124971985817,0.26922500133514404,0.2381500005722046
1766408805869088000,7.082087890625,-0.10009999573230743,0.23718750476837158,0.3521375060081482
1766408805879090400,7.09209033203125,-0.11384999752044678,0.1498750001192093,0.45649999380111694
1766408805889093000,7.102093017578125,-0.13516250252723694,0.023099999874830246,0.5257999897003174
1766408805899095800,7.112095703125,-0.1564749926328659,-0.11110000312328339,0.5512375235557556
1766408805909098500,7.122098388671875,-0.1629374921321869,-0.18039999902248383,0.5352874994277954
1766408805919101000,7.132100830078125,-0.1447875052690506,-0.19634999334812164,0.4809750020503998
1766408805929103600,7.142103515625,-0.10862500220537186,-0.19318750500679016,0.39256250858306885
1766408805944107300,7.157107177734375,-0.038224998861551285,-0.16541250050067902,0.2307250052690506
1766408805954110000,7.16710986328125,-0.009487500414252281,-0.13983750343322754,0.14643749594688416
1766408805964112600,7.177112548828125,-0.010587500408291817,-0.15482500195503235,0.10821250081062317
1766408805974115000,7.187114990234375,-0.06063750013709068,-0.25066250562667847,0.11027500033378601
1766408805989119000,7.202118896484375,-0.1979999989271164,-0.4221250116825104,0.14643749594688416
1766408805999121400,7.212121337890625,-0.3077250123023987,-0.5010499954223633,0.16775000095367432
1766408806009124000,7.2221240234375,-0.42281249165534973,-0.5425750017166138,0.20611250400543213
1766408806019126800,7.232126708984375,-0.5347374677658081,-0.5531625151634216,0.27114999294281006
1766408806029129200,7.242129150390625,-0.6337375044822693,-0.49994999170303345,0.35530000925064087
1766408806039132000,7.2521318359375,-0.7104625105857849,-0.34017500281333923,0.41923749446868896
1766408806049134300,7.26213427734375,-0.737137496471405,-0.08882500231266022,0.4138749837875366
1766408806059136800,7.27213671875,-0.7104625105857849,0.15950000286102295,0.3254624903202057
1766408806069139500,7.282139404296875,-0.644462525844574,0.31597501039505005,0.18809999525547028
1766408806084143400,7.297143310546875,-0.5240125060081482,0.28833749890327454,0.004812499973922968
1766408806094146000,7.30714599609375,-0.43876248598098755,0.17434999346733093,-0.06435000151395798
1766408806104148500,7.3171484375,-0.3684999942779541,0.03368749842047691,-0.07933750003576279
1766408806114151000,7.32715087890625,-0.33233749866485596,-0.08772499859333038,-0.06655000150203705
1766408806124153600,7.337153564453125,-0.32807499170303345,-0.15056249499320984,-0.03671250119805336
1766408806139157500,7.352157470703125,-0.33660000562667847,-0.14630000293254852,0.02186249941587448
1766408806149160200,7.36216015625,-0.3451249897480011,-0.1036750003695488,0.043175000697374344
1766408806164163800,7.377163818359375,-0.37386250495910645,-0.0013749999925494194,0.05486249923706055
1766408806179167700,7.392167724609375,-0.39297500252723694,0.11577499657869339,0.04427500069141388
1766408806189170400,7.40217041015625,-0.3833499848842621,0.15950000286102295,0.015537500381469727
1766408806199172900,7.4121728515625,-0.3642374873161316,0.14561249315738678,-0.015399999916553497
1766408806209175600,7.422175537109375,-0.34718748927116394,0.06888750195503235,-0.03464999794960022
1766408806219178000,7.432177978515625,-0.33660000562667847,-0.042899999767541885,-0.04097500070929527
1766408806229180400,7.442180419921875,-0.33550000190734863,-0.15908749401569366,-0.04207500070333481
1766408806239183000,7.45218310546875,-0.33550000190734863,-0.28366249799728394,-0.015399999916553497
1766408806249185800,7.462185791015625,-0.32903748750686646,-0.3891249895095825,0.03355000168085098
1766408806259188500,7.4721884765625,-0.3301374912261963,-0.4349125027656555,0.0826374962925911
1766408806269191000,7.48219091796875,-0.35144999623298645,-0.444537490606308,0.12416250258684158
1766408806279193300,7.492193359375,-0.37908750772476196,-0.44343748688697815,0.15606249868869781
1766408806289195800,7.50219580078125,-0.4068624973297119,-0.415800005197525,0.17311249673366547
1766408806304200000,7.517199951171875,-0.45691248774528503,-0.34443750977516174,0.19442500174045563
1766408806314202400,7.527202392578125,-0.5112249851226807,-0.31033748388290405,0.22536249458789825
1766408806324205000,7.537205078125,-0.5740625262260437,-0.27197501063346863,0.25946250557899475
1766408806349211600,7.562211669921875,-0.6667374968528748,-0.13461250066757202,0.29356250166893005
1766408806364215300,7.57721533203125,-0.6699000000953674,-0.062150001525878906,0.26468750834465027
1766408806374218000,7.587218017578125,-0.6646749973297119,-0.021587500348687172,0.23278750479221344
1766408806384220700,7.597220703125,-0.6433625221252441,0.025162499397993088,0.20514999330043793
1766408806394223000,7.60722314453125,-0.6007375121116638,0.052937500178813934,0.17847499251365662
1766408806404225800,7.617225830078125,-0.5560500025749207,0.05403750017285347,0.13791249692440033
1766408806429232000,7.642232177734375,-0.4548499882221222,0.11893749982118607,0.07081250101327896
1766408806444236000,7.657236083984375,-0.4174500107765198,0.24461250007152557,0.10064999759197235
1766408806454238700,7.66723876953125,-0.41538751125335693,0.31171250343322754,0.15289999544620514
1766408806464241200,7.6772412109375,-0.40466248989105225,0.3937999904155731,0.2157374918460846
1766408806479245000,7.6922451171875,-0.31735000014305115,0.5035250186920166,0.32339999079704285
1766408806489247700,7.702247802734375,-0.2311374992132187,0.5493124723434448,0.3521375060081482
1766408806499250200,7.712250244140625,-0.1639000028371811,0.5685625076293945,0.3073124885559082
1766408806509252900,7.7222529296875,-0.12457499653100967,0.5152124762535095,0.17957499623298645
1766408806519255300,7.73225537109375,-0.10862500220537186,0.4129124879837036,0.010174999944865704
1766408806534259200,7.74725927734375,-0.08304999768733978,0.30428749322891235,-0.24021250009536743
1766408806544262000,7.757261962890625,-0.07026249915361404,0.27018749713897705,-0.3679499924182892
1766408806554264600,7.7672646484375,-0.06063750013709068,0.2937000095844269,-0.45649999380111694
1766408806569268200,7.782268310546875,-0.03726249933242798,0.357637494802475,-0.46392500400543213
1766408806579270700,7.792270751953125,-0.0424874983727932,0.37894999980926514,-0.38926249742507935
1766408806594274600,7.807274658203125,-0.07122500240802765,0.41827499866485596,-0.26468750834465027
1766408806604277000,7.817277099609375,-0.07975000143051147,0.46406251192092896,-0.20295000076293945
1766408806614279700,7.82727978515625,-0.0765874981880188,0.4651624858379364,-0.12732499837875366
1766408806624282400,7.837282470703125,-0.04675000160932541,0.4384874999523163,-0.030387500301003456
1766408806639286300,7.852286376953125,0.03849999979138374,0.24365000426769257,0.11343749612569809
1766408806659291100,7.872291015625,0.06503749638795853,-0.030112499371170998,0.0644875019788742
1766408806669293800,7.8822939453125,0.09487500041723251,-0.0845625028014183,-0.05486249923706055
1766408806679296500,7.892296630859375,0.16087499260902405,-0.09624999761581421,-0.20295000076293945
1766408806694300400,7.907300537109375,0.24089999496936798,-0.023787500336766243,-0.45649999380111694
1766408806709304000,7.922303955078125,0.2994749844074249,0.15950000286102295,-0.6055499911308289
1766408806719306800,7.932306640625,0.35062500834465027,0.24791249632835388,-0.6109125018119812
1766408806729309400,7.942309326171875,0.38885000348091125,0.2595999836921692,-0.5406500101089478
1766408806739311900,7.952311767578125,0.41346248984336853,0.2223374992609024,-0.42762500047683716
1766408806749314600,7.962314453125,0.44536250829696655,0.1391499936580658,-0.3306874930858612
1766408806759317000,7.97231689453125,0.4848249852657318,0.05719999969005585,-0.2998875081539154
1766408806769319700,7.982319580078125,0.507099986076355,-0.002474999986588955,-0.3349500000476837
1766408806784323300,7.9973232421875,0.5039374828338623,-0.031212499365210533,-0.47561249136924744
1766408806794326000,8.007325927734374,0.5039374828338623,0.007149999961256981,-0.6140750050544739
1766408806804328700,8.01732861328125,0.5081999897956848,0.09446249902248383,-0.7525374889373779
1766408806819332600,8.03233251953125,0.5113624930381775,0.284074991941452,-0.8025875091552734
1766408806834336500,8.04733642578125,0.5220875144004822,0.42143750190734863,-0.6012874841690063
1766408806849340400,8.06234033203125,0.5081999897956848,0.4045250117778778,-0.2956250011920929
1766408806859342800,8.0723427734375,0.4729999899864197,0.2723875045776367,-0.11976250261068344
1766408806869345500,8.082345458984374,0.4624125063419342,0.20418749749660492,-0.03464999794960022
1766408806879348000,8.092347900390624,0.45925000309944153,0.03478749841451645,0.03464999794960022
1766408806889350700,8.1023505859375,0.44110000133514404,-0.18150000274181366,0.07081250101327896
1766408806904354600,8.1173544921875,0.38032498955726624,-0.36038750410079956,-0.0037124999798834324
1766408806914357000,8.12735693359375,0.34732499718666077,-0.3592875003814697,-0.0952875018119812
1766408806924359400,8.137359375,0.31226250529289246,-0.3007124960422516,-0.170912504196167
1766408806939363600,8.152363525390625,0.2451625019311905,-0.15056249499320984,-0.1859000027179718
1766408806949366000,8.162365966796875,0.18012499809265137,-0.048262499272823334,-0.15386250615119934
1766408806959368700,8.17236865234375,0.10449999570846558,0.025162499397993088,-0.10917499661445618
1766408806974372900,8.187372802734375,0.002199999988079071,0.06572499871253967,-0.030387500301003456
1766408806989376500,8.20237646484375,-0.07452499866485596,0.037950001657009125,0.04743750020861626
1766408807004380400,8.21738037109375,-0.13516250252723694,-0.10147500038146973,0.14121249318122864
1766408807014383000,8.227383056640624,-0.1788875013589859,-0.1942874938249588,0.20611250400543213
1766408807029387000,8.242386962890626,-0.2428250014781952,-0.2784374952316284,0.27114999294281006
1766408807039389400,8.252389404296874,-0.2619374990463257,-0.3199625015258789,0.3041499853134155
1766408807049391900,8.262391845703124,-0.25244998931884766,-0.3689124882221222,0.36272498965263367
1766408807064395800,8.277395751953126,-0.19910000264644623,-0.37537500262260437,0.43092501163482666
1766408807074398200,8.287398193359374,-0.1522125005722046,-0.3348124921321869,0.41497498750686646
1766408807084401200,8.297401123046875,-0.10862500220537186,-0.31776249408721924,0.345674991607666
1766408807099405000,8.312405029296874,-0.08511249721050262,-0.3081375062465668,0.17531250417232513
1766408807109407500,8.322407470703125,-0.10752499848604202,-0.3092375099658966,0.06228749826550484
1766408807119410000,8.332409912109375,-0.1564749926328659,-0.3359124958515167,-0.011137500405311584
1766408807129412600,8.34241259765625,-0.22687499225139618,-0.33274999260902405,-0.08566249907016754
1766408807139415300,8.352415283203126,-0.3119874894618988,-0.3497999906539917,-0.16885000467300415
1766408807149418000,8.36241796875,-0.3983374834060669,-0.3955875039100647,-0.2540999948978424
1766408807164421600,8.377421630859375,-0.5101249814033508,-0.4402749836444855,-0.3712500035762787
1766408807174424300,8.38742431640625,-0.5592125058174133,-0.421162486076355,-0.4351874887943268
1766408807184426800,8.3974267578125,-0.5814874768257141,-0.31033748388290405,-0.46598750352859497
1766408807194429400,8.407429443359375,-0.5720000267028809,-0.10051249712705612,-0.47561249136924744
1766408807209433300,8.422433349609374,-0.5549499988555908,0.20624999701976776,-0.4404124915599823
1766408807219435800,8.432435791015624,-0.5601750016212463,0.2712875008583069,-0.3712500035762787
1766408807229438500,8.4424384765625,-0.5740625262260437,0.19030000269412994,-0.2657875120639801
1766408807239441000,8.45244091796875,-0.5836874842643738,0.014574999921023846,-0.14643749594688416
1766408807249443600,8.462443603515625,-0.591112494468689,-0.24433749914169312,-0.05912499874830246
1766408807264447500,8.477447509765625,-0.5836874842643738,-0.705512523651123,0.02186249941587448
1766408807279451400,8.492451416015625,-0.5677375197410583,-0.8813750147819519,0.09748750180006027
1766408807289454000,8.5024541015625,-0.5644375085830688,-0.7929624915122986,0.08579999953508377
1766408807299456500,8.51245654296875,-0.5762624740600586,-0.5340499877929688,0.015537500381469727
1766408807309459200,8.522459228515626,-0.5729625225067139,-0.2176624983549118,-0.05486249923706055
1766408807319461600,8.532461669921876,-0.508062481880188,0.04977500066161156,-0.023924998939037323
1766408807329464300,8.54246435546875,-0.39943748712539673,0.33096250891685486,0.06228749826550484
1766408807339467000,8.552467041015625,-0.3375625014305115,0.5268999934196472,0.05706249922513962
1766408807349469400,8.562469482421875,-0.29397499561309814,0.3469125032424927,0.052799999713897705
1766408807359472000,8.57247216796875,-0.23430000245571136,0.1200374960899353,0.020762499421834946
1766408807369474600,8.582474609375,-0.18741250038146973,-0.05142499879002571,-0.05596249923110008
1766408807379477200,8.592477294921874,-0.14368750154972076,-0.18466250598430634,-0.15386250615119934
1766408807389479700,8.602479736328124,-0.08937499672174454,-0.2059749960899353,-0.22206249833106995
1766408807399482400,8.612482421875,-0.06806249916553497,-0.1835625022649765,-0.20721249282360077
1766408807409485000,8.622485107421875,-0.055275000631809235,-0.05142499879002571,-0.18369999527931213
1766408807419487500,8.632487548828125,-0.05637500062584877,0.12430000305175781,-0.17407499253749847
1766408807434491400,8.647491455078125,-0.0882750004529953,0.21697500348091125,-0.14533749222755432
1766408807444494000,8.657494140625,-0.11604999750852585,0.1882375031709671,-0.11769999563694
1766408807454496800,8.667496826171876,-0.14162500202655792,0.15097500383853912,-0.08896250277757645
1766408807464499200,8.677499267578124,-0.1629374921321869,0.10408750176429749,-0.03987500071525574
1766408807474502000,8.687501953125,-0.18095000088214874,0.015675000846385956,0.026124998927116394
1766408807494507300,8.70750732421875,-0.16926249861717224,-0.2176624983549118,0.1966249942779541
1766408807504509700,8.717509765625,-0.13626250624656677,-0.3188624978065491,0.29452499747276306
1766408807524514800,8.737514892578124,-0.06696250289678574,-0.3806000053882599,0.427762508392334
1766408807539518700,8.752518798828126,-0.01691249944269657,-0.30607500672340393,0.4628250002861023
1766408807549521400,8.762521484375,0.0032999999821186066,-0.22082500159740448,0.4820750057697296
1766408807559523800,8.77252392578125,0.006462499964982271,-0.11962500214576721,0.5087500214576721
1766408807569526500,8.782526611328125,-0.0009624999947845936,-0.02694999985396862,0.5480750203132629
1766408807579529200,8.792529296875,-0.010587500408291817,0.04221250116825104,0.5801125168800354
1766408807589532000,8.802531982421876,-0.020212499424815178,0.09129999577999115,0.6162750124931335
1766408807604535600,8.81753564453125,-0.06599999964237213,0.09129999577999115,0.7046874761581421
1766408807614538000,8.8275380859375,-0.1331000030040741,0.09129999577999115,0.7452499866485596
1766408807629542000,8.8425419921875,-0.24392500519752502,0.18081249296665192,0.7441499829292297
1766408807639544600,8.852544677734375,-0.28971248865127563,0.24034999310970306,0.7334250211715698
1766408807649547300,8.86254736328125,-0.3067624866962433,0.329862505197525,0.6961625218391418
1766408807659549700,8.8725498046875,-0.2917749881744385,0.4758875072002411,0.6301624774932861
1766408807669552400,8.882552490234374,-0.2320999950170517,0.6280999779701233,0.5534374713897705
1766408807679555000,8.89255517578125,-0.14272500574588776,0.7250375151634216,0.4692874848842621
1766408807689557800,8.902557861328125,-0.07026249915361404,0.7229750156402588,0.38830000162124634
1766408807699560200,8.912560302734375,-0.038224998861551285,0.6345624923706055,0.3382500112056732
1766408807714564000,8.927564208984375,-0.03396249935030937,0.40232500433921814,0.3020874857902527
1766408807729568000,8.942568115234375,-0.05637500062584877,0.1765500009059906,0.23704999685287476
1766408807739570700,8.95257080078125,-0.09363749623298645,0.0625625029206276,0.16032500565052032
1766408807749573000,8.962572998046875,-0.13846249878406525,0.016637500375509262,0.060224998742341995
1766408807759575600,8.972575439453125,-0.15867500007152557,0.0028874999843537807,-0.043175000697374344
1766408807769578200,8.982578125,-0.1447875052690506,-0.002474999986588955,-0.12622499465942383
1766408807784582400,8.99758251953125,-0.1214125007390976,0.05719999969005585,-0.1933249980211258
1766408807794584800,9.007584716796876,-0.09790000319480896,0.12319999933242798,-0.22852499783039093
1766408807814590000,9.02758984375,-0.01484999991953373,0.41084998846054077,-0.3339875042438507
1766408807829594000,9.042593994140624,0.050187498331069946,0.6111875176429749,-0.4031499922275543
1766408807839596500,9.052596435546874,0.08635000139474869,0.6675624847412109,-0.4298250079154968
1766408807849599000,9.062598876953125,0.11412499845027924,0.6536750197410583,-0.4446749985218048
1766408807859601700,9.0726015625,0.13007499277591705,0.5387250185012817,-0.43408748507499695
1766408807869604000,9.08260400390625,0.12691250443458557,0.36079999804496765,-0.38926249742507935
1766408807879606800,9.092606689453126,0.11082500219345093,0.17861250042915344,-0.3158375024795532
1766408807889609500,9.102609375,0.07466249912977219,0.060362499207258224,-0.2209624946117401
1766408807899612200,9.112612060546875,0.025712499395012856,-0.0035749999806284904,-0.09212499856948853
1766408807909614600,9.122614501953125,-0.025437500327825546,-0.045099999755620956,0.07507500052452087
1766408807919617000,9.132616943359375,-0.06270000338554382,-0.05898749828338623,0.2498375028371811
1766408807929619700,9.14261962890625,-0.07878749817609787,-0.037675000727176666,0.39998748898506165
1766408807939622400,9.152622314453126,-0.07878749817609787,-0.020624998956918716,0.5002250075340271
1766408807954626300,9.167626220703125,-0.045787498354911804,-0.020624998956918716,0.5332249999046326
1766408807964628700,9.177628662109376,0.0010999999940395355,-0.022687500342726707,0.48317500948905945
1766408807974631400,9.18763134765625,0.08744999766349792,-0.01732499897480011,0.3797749876976013
1766408807989634000,9.202634033203125,0.2461249977350235,-0.07067500054836273,0.18809999525547028
1766408808049651000,9.26265087890625,0.48262500762939453,-0.042899999767541885,-0.420199990272522
1766408808059653400,9.2726533203125,0.47093749046325684,-0.040837500244379044,-0.3712500035762787
1766408808069656000,9.282656005859375,0.47093749046325684,-0.02914999984204769,-0.2817375063896179
1766408808079658800,9.29265869140625,0.4805625081062317,-0.01952499896287918,-0.1933249980211258
1766408808089661400,9.302661376953125,0.47946250438690186,-0.01952499896287918,-0.12622499465942383
1766408808099664000,9.312663818359376,0.4624125063419342,-0.020624998956918716,-0.08992499858140945
1766408808114667800,9.327667724609375,0.42294999957084656,-0.0056374999694526196,-0.08676250278949738
1766408808124670500,9.33767041015625,0.38885000348091125,0.011412499472498894,-0.09102500230073929
1766408808134673200,9.347673095703126,0.3590124845504761,0.040150001645088196,-0.0835999995470047
1766408808149676800,9.3626767578125,0.317487508058548,0.04867500066757202,-0.04207500070333481
1766408808164680700,9.3776806640625,0.26001250743865967,0.04867500066757202,-0.015399999916553497
1766408808174683400,9.387683349609375,0.22811250388622284,0.05829999968409538,0.005912499967962503
1766408808189687300,9.402687255859375,0.21312500536441803,0.11261250078678131,0.04853750020265579
1766408808209692400,9.4226923828125,0.22165000438690186,0.23086249828338623,0.15289999544620514
1766408808219695000,9.432695068359376,0.2227499932050705,0.3022249937057495,0.21037499606609344
1766408808229697500,9.442697509765624,0.22055000066757202,0.39916250109672546,0.2689499855041504
1766408808239700200,9.4527001953125,0.22811250388622284,0.5152124762535095,0.2913624942302704
1766408808254704000,9.4677041015625,0.234437495470047,0.5759875178337097,0.2433750033378601
1766408808264706600,9.47770654296875,0.20776249468326569,0.5856124758720398,0.17201249301433563
1766408808274709200,9.487709228515625,0.1769624948501587,0.6430875062942505,0.08153750002384186
1766408808289713200,9.502713134765624,0.13433749973773956,0.6313999891281128,0.0016499999910593033
1766408808304717000,9.517717041015626,0.08744999766349792,0.5259374976158142,0.005912499967962503
1766408808319721000,9.532720947265625,0.02461249940097332,-0.0013749999925494194,0.03258749842643738
1766408808339726000,9.55272607421875,0.02241249941289425,-0.6287875175476074,-0.2508000135421753
1766408808349728800,9.562728759765625,0.056512501090765,-0.6682500243186951,-0.345674991607666
1766408808359731200,9.572731201171875,0.08635000139474869,-0.6330500245094299,-0.359562486410141
1766408808369734000,9.58273388671875,0.07356250286102295,-0.5990874767303467,-0.32436248660087585
1766408808379736600,9.592736572265625,0.012924999929964542,-0.5872625112533569,-0.2498375028371811
1766408808389739300,9.6027392578125,-0.06063750013709068,-0.49994999170303345,-0.2167000025510788
1766408808404743000,9.617742919921875,-0.2172500044107437,-0.4339500069618225,-0.24763749539852142
1766408808414745600,9.62774560546875,-0.3375625014305115,-0.43601250648498535,-0.23485000431537628
1766408808424748300,9.637748291015624,-0.4185499846935272,-0.47657498717308044,-0.23485000431537628
1766408808439752200,9.652752197265626,-0.4782249927520752,-0.5073750019073486,-0.3531000018119812
1766408808449754600,9.662754638671874,-0.5271750092506409,-0.5116375088691711,-0.45223748683929443
1766408808459757300,9.67275732421875,-0.5634750127792358,-0.47657498717308044,-0.5224999785423279
1766408808469759700,9.682759765625,-0.5687000155448914,-0.4413749873638153,-0.5469750165939331
1766408808479762400,9.692762451171875,-0.5847874879837036,-0.3529624938964844,-0.5202999711036682
1766408808494766300,9.707766357421875,-0.5942749977111816,-0.21449999511241913,-0.382937490940094
1766408808504769000,9.71776904296875,-0.5900124907493591,-0.17613749206066132,-0.21779999136924744
1766408808519772700,9.732772705078125,-0.6039000153541565,-0.30717501044273376,0.10175000131130219
1766408808529775400,9.742775390625,-0.6283749938011169,-0.3870624899864197,0.2870999872684479
1766408808549780700,9.76278076171875,-0.5644375085830688,0.0635249987244606,0.5640249848365784
1766408808559783200,9.772783203125,-0.49101248383522034,0.2872374951839447,0.6748499870300293
1766408808569785600,9.78278564453125,-0.4441249966621399,0.43216249346733093,0.7334250211715698
1766408808579788300,9.792788330078125,-0.38981249928474426,0.5493124723434448,0.6833750009536743
1766408808589791000,9.802791015625,-0.3620375096797943,0.5717250108718872,0.5693874955177307
1766408808604795000,9.817794921875,-0.4259749948978424,0.16266250610351562,0.3573625087738037
1766408808614797600,9.827797607421875,-0.5592125058174133,-0.2591874897480011,0.21037499606609344
1766408808629801500,9.842801513671875,-0.7178875207901001,-0.7460749745368958,-0.020762499421834946
1766408808644805400,9.857805419921876,-0.7243499755859375,-1.0081499814987183,-0.2157374918460846
1766408808659809300,9.872809326171875,-0.33233749866485596,-0.7598249912261963,-0.5065500140190125
1766408808669811700,9.882811767578126,-0.03189999982714653,-0.4871625006198883,-0.5299249887466431
1766408808679814400,9.892814453125,0.02461249940097332,-0.32945001125335693,-0.3903625011444092
1766408808694818300,9.907818359375,-0.2087250053882599,-0.4595249891281128,-0.12828749418258667
1766408808714823700,9.92782373046875,-0.32161250710487366,-0.1270499974489212,-0.02708750031888485
1766408808724826000,9.937826171875,-0.2055625021457672,-0.24860000610351562,-0.133650004863739
1766408808734828800,9.947828857421875,-0.2311374992132187,-0.2677125036716461,-0.21463750302791595
1766408808754834000,9.967833984375,-0.30566251277923584,-0.28049999475479126,-0.1816374957561493
1766408808774839300,9.98783935546875,-0.2843500077724457,-0.08346249908208847,-0.14533749222755432
1766408808784841700,9.997841796875,-0.26840001344680786,0.025162499397993088,-0.13255000114440918
1766408808799846000,10.012845947265625,-0.24392500519752502,0.1541374921798706,-0.1358499974012375
1766408808819851000,10.03285107421875,-0.2864125072956085,-0.031212499365210533,-0.14327499270439148
1766408808839856000,10.052856201171876,-0.30882498621940613,-0.2367749959230423,-0.05486249923706055
1766408808854860000,10.067860107421875,-0.2619374990463257,-0.19318750500679016,0.06655000150203705
1766408808869864000,10.082864013671875,-0.20762500166893005,-0.04399999976158142,0.11769999563694
1766408808884867800,10.097867919921875,-0.20652499794960022,0.09129999577999115,0.14973749220371246
1766408808934880800,10.147880859375,-0.41318750381469727,0.20198750495910645,0.29452499747276306
1766408808944883200,10.15788330078125,-0.4782249927520752,0.3895374834537506,0.25946250557899475
1766408808954886100,10.16788623046875,-0.5389999747276306,0.5046250224113464,0.18906250596046448
1766408808994896400,10.207896484375,-0.44948750734329224,0.20418749749660492,-0.16032500565052032
1766408809014901800,10.22790185546875,-0.4600749909877777,0.04647500067949295,-0.3041499853134155
1766408809029905400,10.242905517578125,-0.47712498903274536,0.054999999701976776,-0.2817375063896179
1766408809044909300,10.257909423828124,-0.4292750060558319,0.2116124927997589,-0.1816374957561493
1766408809054912000,10.267912109375,-0.38128748536109924,0.30332499742507935,-0.11659999936819077
1766408809064914700,10.277914794921875,-0.3386625051498413,0.39489999413490295,-0.08249999582767487
1766408809089921000,10.302921142578125,-0.23539999127388,0.5535749793052673,-0.0005499999970197678
1766408809104925200,10.31792529296875,-0.17036250233650208,0.6271374821662903,0.09968750178813934
1766408809119929000,10.33292919921875,-0.11715000122785568,0.6419875025749207,0.13695000112056732
1766408809139934200,10.352934326171875,-0.055275000631809235,0.610087513923645,0.014437500387430191
1766408809159939300,10.372939208984375,0.03946249932050705,0.5141124725341797,-0.22522500157356262
1766408809169942000,10.38294189453125,0.02667500078678131,0.4470124840736389,-0.3041499853134155
1766408809179944700,10.39294482421875,-0.010587500408291817,0.34154999256134033,-0.34347498416900635
1766408809189947100,10.402947021484374,-0.038224998861551285,0.1882375031709671,-0.3371500074863434
1766408809199950000,10.4129501953125,-0.038224998861551285,0.029424998909235,-0.2817375063896179
1766408809219955000,10.432954833984375,-0.02227500081062317,-0.17393749952316284,-0.05486249923706055
1766408809234958800,10.447958740234375,0.021449999883770943,-0.08772499859333038,0.22316250205039978
1766408809244961500,10.45796142578125,0.08855000138282776,0.07535000145435333,0.38940000534057617
1766408809254964200,10.467964111328126,0.15661250054836273,0.19249999523162842,0.4692874848842621
1766408809264966700,10.477966552734374,0.21848750114440918,0.23828749358654022,0.4596624970436096
1766408809279970600,10.492970458984376,0.29301249980926514,0.23292499780654907,0.3521375060081482
1766408809294974500,10.507974365234375,0.3260124921798706,0.20198750495910645,0.21683749556541443
1766408809304977200,10.51797705078125,0.3367374837398529,0.16692499816417694,0.10711249709129333
1766408809314979800,10.527979736328126,0.3398999869823456,0.10188750177621841,-0.04633750021457672
1766408809324982300,10.537982177734374,0.3345375061035156,0.01347499992698431,-0.21463750302791595
1766408809334985000,10.54798486328125,0.32394999265670776,-0.057887498289346695,-0.34773749113082886
1766408809344987600,10.557987548828125,0.31226250529289246,-0.06847500056028366,-0.4212999939918518
1766408809359991600,10.572991455078125,0.2727999985218048,-0.028049999848008156,-0.4170374870300293
1766408809369994200,10.582994140625,0.23663750290870667,-0.028049999848008156,-0.3807374835014343
1766408809379997000,10.592996826171875,0.2162874937057495,-0.050462499260902405,-0.3647874891757965
1766408809389999600,10.60299951171875,0.21312500536441803,-0.13241249322891235,-0.3755125105381012
1766408809400002000,10.613001953125,0.22055000066757202,-0.29218751192092896,-0.4010874927043915
1766408809415006000,10.628005859375,0.2461249977350235,-0.5190625190734863,-0.42666250467300415
1766408809425008600,10.638008544921876,0.2525874972343445,-0.5787374973297119,-0.38609999418258667
1766408809440012500,10.653012451171875,0.2387000024318695,-0.5905625224113464,-0.25189998745918274
1766408809450015200,10.66301513671875,0.22591249644756317,-0.568149983882904,-0.16142499446868896
1766408809460017700,10.673017578125,0.23759999871253967,-0.5138375163078308,-0.10175000131130219
1766408809470020400,10.683020263671875,0.23663750290870667,-0.41263750195503235,-0.05596249923110008
1766408809480023000,10.69302294921875,0.19923749566078186,-0.3273875117301941,-0.037812501192092896
1766408809495027000,10.70802685546875,0.1662375032901764,-0.2367749959230423,-0.10175000131130219
1766408809510030800,10.72303076171875,0.15771250426769257,-0.18576249480247498,-0.19538749754428864
1766408809520033500,10.733033447265624,0.15661250054836273,-0.19634999334812164,-0.23058749735355377
1766408809535037400,10.748037353515626,0.14602500200271606,-0.16541250050067902,-0.22632500529289246
1766408809545040100,10.7580400390625,0.1311749964952469,-0.12278749793767929,-0.18906250596046448
1766408809560044000,10.7730439453125,0.12581250071525574,-0.06847500056028366,-0.11659999936819077
1766408809570046700,10.783046630859374,0.1396999955177307,-0.008799999952316284,-0.06338749825954437
1766408809580049200,10.793049072265624,0.15771250426769257,0.07631249725818634,0.0005499999970197678
1766408809590051800,10.8030517578125,0.1662375032901764,0.17544999718666077,0.06764999777078629
1766408809600054500,10.813054443359375,0.1545500010251999,0.22659999132156372,0.13048750162124634
1766408809615058400,10.828058349609375,0.10449999570846558,0.0966624990105629,0.09322500228881836
1766408809630062300,10.843062255859374,0.10559999942779541,-0.0812624990940094,-0.004812499973922968
1766408809640064800,10.853064697265625,0.11082500219345093,-0.18466250598430634,-0.04097500070929527
1766408809655068700,10.868068603515624,0.10449999570846558,-0.24213749170303345,-0.020762499421834946
1766408809665071400,10.8780712890625,0.1023000031709671,-0.17613749206066132,0.07507500052452087
1766408809675074000,10.888073974609375,0.11412499845027924,-0.062150001525878906,0.21793749928474426
1766408809685076700,10.89807666015625,0.13323749601840973,0.05926249921321869,0.35530000925064087
1766408809695079200,10.9080791015625,0.14066250622272491,0.22659999132156372,0.4670875072479248
1766408809705081900,10.918081787109376,0.16197499632835388,0.39489999413490295,0.5651249885559082
1766408809715084300,10.928084228515624,0.17159999907016754,0.5183749794960022,0.6524375081062317
1766408809725087200,10.938087158203125,0.1396999955177307,0.5961999893188477,0.7004249691963196
1766408809735089700,10.948089599609375,0.09281250089406967,0.5802500247955322,0.6919000148773193
1766408809745092400,10.95809228515625,0.033137500286102295,0.5450500249862671,0.631262481212616
1766408809760096300,10.97309619140625,-0.06916250288486481,0.37674999237060547,0.5460125207901001
1766408809775100200,10.98810009765625,-0.2012999951839447,0.29906249046325684,0.6481750011444092
1766408809790104000,11.00310400390625,-0.24818749725818634,0.12636250257492065,0.7441499829292297
1766408809800106800,11.013106689453124,-0.21188749372959137,0.054999999701976776,0.7111499905586243
1766408809820112000,11.03311181640625,-0.22151249647140503,-0.10147500038146973,0.4255625009536743
1766408809835116000,11.048115966796875,-0.4057624936103821,-0.2666124999523163,0.28600001335144043
1766408809845118700,11.05811865234375,-0.4345000088214874,-0.3018124997615814,0.22852499783039093
1766408809860122600,11.07312255859375,-0.29067498445510864,-0.16541250050067902,0.2626250088214874
1766408809870125300,11.083125244140625,-0.18095000088214874,-0.09515000134706497,0.24557499587535858
1766408809880128000,11.0931279296875,-0.10009999573230743,-0.12388750165700912,0.2040500044822693
1766408809890130400,11.10313037109375,-0.007424999959766865,-0.2634499967098236,0.16775000095367432
1766408809900133400,11.11313330078125,0.08524999767541885,-0.33371248841285706,0.1060125008225441
1766408809915137300,11.12813720703125,0.15991249680519104,-0.421162486076355,-0.016499999910593033
1766408809930141200,11.14314111328125,0.1428624987602234,-0.3572250008583069,-0.13255000114440918
1766408809940143900,11.153143798828125,0.09487500041723251,-0.3092375099658966,-0.20721249282360077
1766408809950146600,11.163146484375,0.029975000768899918,-0.3348124921321869,-0.2732124924659729
1766408809965150500,11.178150390625,-0.07548750191926956,-0.444537490606308,-0.35846251249313354
1766408809980154600,11.193154541015625,-0.13420000672340393,-0.5414749979972839,-0.406312495470047
1766408809990157000,11.203156982421875,-0.14368750154972076,-0.5233250260353088,-0.39778751134872437
1766408810000159700,11.21315966796875,-0.12457499653100967,-0.44769999384880066,-0.3339875042438507
1766408810010162400,11.223162353515624,-0.12773749232292175,-0.3123999834060669,-0.20817500352859497
1766408810020165000,11.2331650390625,-0.16609999537467957,-0.12498749792575836,-0.03671250119805336
1766408810030167800,11.243167724609375,-0.2129874974489212,0.05829999968409538,0.13901250064373016
1766408810040170200,11.253170166015625,-0.25244998931884766,0.17008750140666962,0.30098751187324524
1766408810055174400,11.26817431640625,-0.2917749881744385,0.20308749377727509,0.48317500948905945
1766408810065177000,11.278177001953125,-0.2971374988555908,0.19456249475479126,0.5215374827384949
1766408810080181000,11.293180908203125,-0.2704625129699707,0.12319999933242798,0.4575999975204468
1766408810095185200,11.30818505859375,-0.21834999322891235,-0.00989999994635582,0.32339999079704285
1766408810105187600,11.3181875,-0.18947499990463257,-0.08882500231266022,0.21793749928474426
1766408810120191500,11.33319140625,-0.16073749959468842,-0.12072499841451645,0.10395000129938126
1766408810135195600,11.348195556640626,-0.14162500202655792,-0.062150001525878906,0.045237500220537186
1766408810150199600,11.363199462890625,-0.1214125007390976,0.02199999988079071,0.022962499409914017
1766408810160202200,11.3732021484375,-0.10106249898672104,0.06146249920129776,0.007012499962002039
1766408810170205000,11.383204833984376,-0.0765874981880188,0.07961250096559525,-0.020762499421834946
1766408810180207600,11.39320751953125,-0.04358749836683273,0.0742499977350235,-0.07397499680519104
1766408810190210300,11.403210205078125,-0.008387500420212746,0.04441250115633011,-0.1443749964237213
1766408810200212700,11.413212646484375,0.01924999989569187,0.0028874999843537807,-0.23485000431537628
1766408810210215400,11.42321533203125,0.027775000780820847,-0.01952499896287918,-0.3445749878883362
1766408810220218000,11.433218017578126,0.018149999901652336,-0.0056374999694526196,-0.45746248960494995
1766408810230220800,11.443220703125,-0.006324999965727329,0.037950001657009125,-0.5395500063896179
1766408810240223500,11.453223388671875,-0.0424874983727932,0.1050499975681305,-0.5757125020027161
1766408810250226200,11.46322607421875,-0.08195000141859055,0.16898749768733978,-0.5406500101089478
1766408810260228900,11.473228759765625,-0.11604999750852585,0.20198750495910645,-0.4446749985218048
1766408810270231600,11.4832314453125,-0.1331000030040741,0.21697500348091125,-0.3349500000476837
1766408810280234000,11.49323388671875,-0.1405249983072281,0.19786250591278076,-0.25189998745918274
1766408810290237000,11.50323681640625,-0.14162500202655792,0.1541374921798706,-0.2167000025510788
1766408810300239600,11.513239501953125,-0.13089999556541443,0.10092499852180481,-0.20611250400543213
1766408810310242000,11.523241943359375,-0.10436250269412994,0.05073750019073486,-0.2157374918460846
1766408810325246000,11.538245849609375,-0.08401250094175339,-0.07699999958276749,-0.2274249941110611
1766408810335249000,11.548248779296875,-0.10009999573230743,-0.14739999175071716,-0.19965000450611115
1766408810350252800,11.563252685546875,-0.14904999732971191,-0.2102375030517578,-0.12086249887943268
1766408810365256700,11.578256591796874,-0.19910000264644623,-0.1909874975681305,-0.028187500312924385
1766408810380260900,11.5932607421875,-0.18205000460147858,-0.17077499628067017,-0.0057749999687075615
1766408810395264800,11.6082646484375,-0.12347500026226044,-0.24213749170303345,-0.035612501204013824
1766408810405267500,11.618267333984376,-0.07878749817609787,-0.3273875117301941,-0.07081250101327896
1766408810415270100,11.628270263671874,-0.03726249933242798,-0.38596248626708984,-0.08470000326633453
1766408810425272800,11.63827294921875,-0.007424999959766865,-0.40617498755455017,-0.0719124972820282
1766408810435275500,11.648275634765625,0.025712499395012856,-0.32628750801086426,-0.037812501192092896
1766408810445278200,11.6582783203125,0.07246249914169312,-0.17503750324249268,-0.010037500411272049
1766408810455281000,11.668281005859376,0.14918750524520874,-0.006737499963492155,-0.026124998927116394
1766408810465283600,11.67828369140625,0.25575000047683716,0.1541374921798706,-0.08992499858140945
1766408810480287500,11.69328759765625,0.41772499680519104,0.30332499742507935,-0.27211248874664307
1766408810490290000,11.7032900390625,0.4740999937057495,0.37248748540878296,-0.3988874852657318
1766408810500292900,11.71329296875,0.47093749046325684,0.4076874852180481,-0.4862000048160553
1766408810515296800,11.728296875,0.33880001306533813,0.36822500824928284,-0.4809750020503998
1766408810525299500,11.738299560546874,0.1886499971151352,0.3096500039100647,-0.3988874852657318
1766408810540303400,11.753303466796876,-0.06063750013709068,0.17544999718666077,-0.20295000076293945
1766408810555307500,11.7683076171875,-0.2928749918937683,0.08813749998807907,0.0016499999910593033
1766408810570311400,11.7833115234375,-0.5517874956130981,-0.045099999755620956,0.17957499623298645
1766408810580314000,11.793314208984375,-0.6220499873161316,-0.05678749829530716,0.2956250011920929
1766408810595318300,11.808318359375,-0.47079998254776,0.12113749980926514,0.4437125027179718
1766408810605320700,11.81832080078125,-0.3386625051498413,0.1882375031709671,0.5076500177383423
1766408810615323400,11.828323486328125,-0.258774995803833,0.2232999950647354,0.5235999822616577
1766408810625326000,11.838326171875,-0.2055625021457672,0.34375,0.5033875107765198
1766408810640330200,11.853330322265625,-0.1106875017285347,0.55673748254776,0.382937490940094
1766408810650333000,11.8633330078125,-0.08195000141859055,0.740024983882904,0.2956250011920929
1766408810660335600,11.873335693359374,-0.06173750013113022,0.8305000066757202,0.19016249477863312
1766408810670338300,11.88333837890625,-0.06599999964237213,0.8934749960899353,0.07837499678134918
1766408810680341000,11.893341064453125,-0.07452499866485596,0.9168499708175659,-0.02708750031888485
1766408810690343400,11.903343505859375,-0.06379999965429306,0.8753250241279602,-0.12622499465942383
1766408810700346400,11.913346435546876,-0.019112499430775642,0.7666999697685242,-0.21353749930858612
1766408810710349000,11.92334912109375,0.03849999979138374,0.6399250030517578,-0.2593249976634979
1766408810725353000,11.93835302734375,0.09171249717473984,0.3244999945163727,-0.22948749363422394
1766408810740357000,11.953357177734375,0.09487500041723251,0.06888750195503235,-0.08786249905824661
1766408810755361000,11.968361083984375,0.08524999767541885,0.16802500188350677,0.13048750162124634
1766408810770365000,11.983364990234374,0.09281250089406967,0.5183749794960022,0.37441250681877136
1766408810790370600,12.00337060546875,0.009624999947845936,0.8977375030517578,0.7057874798774719
1766408810805374500,12.01837451171875,0.07039999961853027,0.9913749694824219,0.8005250096321106
1766408810815377000,12.028376953125,0.18328750133514404,0.9168499708175659,0.7547374963760376
1766408810825379800,12.0383798828125,0.2866874933242798,0.767662525177002,0.6461125016212463
1766408810840383700,12.0533837890625,0.39531248807907104,0.45663750171661377,0.36162498593330383
1766408810850386400,12.063386474609375,0.4347749948501587,0.2957625091075897,0.116737499833107
1766408810860389400,12.073389404296876,0.44756248593330383,0.17434999346733093,-0.12306249886751175
1766408810870391800,12.083391845703124,0.4283125102519989,0.10188750177621841,-0.3147374987602234
1766408810880394500,12.09339453125,0.40383750200271606,0.05719999969005585,-0.43188750743865967
1766408810900400000,12.113400146484375,0.33783748745918274,0.16046249866485596,-0.4010874927043915
1766408810915404000,12.128404052734375,0.3004375100135803,0.22123749554157257,-0.1751749962568283
1766408810925406700,12.13840673828125,0.2919124960899353,0.2223374992609024,-0.007974999956786633
1766408810935409400,12.148409423828125,0.2876499891281128,0.23718750476837158,0.1060125008225441
1766408810950413300,12.163413330078125,0.27816250920295715,0.2670249938964844,0.16032500565052032
1766408810960416000,12.173416015625,0.26963749527931213,0.27445000410079956,0.14863750338554382
1766408810970419000,12.1834189453125,0.25575000047683716,0.2820124924182892,0.1284250020980835
1766408810980421400,12.19342138671875,0.23663750290870667,0.29260000586509705,0.12306249886751175
1766408810990424000,12.203424072265625,0.22055000066757202,0.30428749322891235,0.1443749964237213
1766408811005428200,12.21842822265625,0.2110625058412552,0.32670000195503235,0.20184999704360962
1766408811015431000,12.228430908203125,0.20776249468326569,0.3363249897956848,0.21889999508857727
1766408811025433600,12.23843359375,0.21422499418258667,0.28091248869895935,0.19236250221729279
1766408811035436300,12.248436279296875,0.227012500166893,0.18603749573230743,0.1326874941587448
1766408811050440200,12.263440185546875,0.227012500166893,0.04867500066757202,0.010174999944865704
1766408811065444400,12.2784443359375,0.18754999339580536,-0.11756250262260437,-0.060087498277425766
1766408811075446800,12.28844677734375,0.14918750524520874,-0.1676124930381775,-0.07617499679327011
1766408811090451000,12.303450927734374,0.0906125009059906,-0.16871249675750732,-0.05376249924302101
1766408811100453600,12.31345361328125,0.05967500060796738,-0.17820000648498535,-0.03987500071525574
1766408811115457800,12.328457763671874,-0.006324999965727329,-0.19002500176429749,-0.03244999796152115
1766408811125460500,12.33846044921875,-0.040424998849630356,-0.2293500006198883,-0.016499999910593033
1766408811135463200,12.348463134765625,-0.05211250111460686,-0.254925012588501,0.0005499999970197678
1766408811145465600,12.358465576171875,-0.04468749836087227,-0.2730749845504761,0.015537500381469727
1766408811160469800,12.3734697265625,-0.009487500414252281,-0.3433375060558319,0.08786249905824661
1766408811170472400,12.383472412109375,0.07356250286102295,0.17434999346733093,-0.05376249924302101
1766408811180475100,12.39347509765625,0.11082500219345093,-0.08662500232458115,-0.06971249729394913
1766408811190477800,12.403477783203124,0.09803749620914459,-0.34443750977516174,-0.08043749630451202
1766408811200480500,12.41348046875,0.07150000333786011,-0.5926250219345093,-0.10807500034570694
1766408811210483200,12.423483154296875,0.02667500078678131,-0.7853999733924866,-0.06861250102519989
1766408811220486000,12.43348583984375,0.005362499970942736,-0.9207000136375427,-0.011137500405311584
1766408811230488800,12.44348876953125,-0.012649999931454659,-1.054900050163269,0.03671250119805336
1766408811245492700,12.45849267578125,-0.07122500240802765,-0.9953625202178955,0.01223750039935112
1766408811255495200,12.4684951171875,-0.08621250092983246,-0.8461750149726868,-0.04633750021457672
1766408811270499600,12.48349951171875,-0.06599999964237213,-0.6171000003814697,-0.16238750517368317
1766408811285503500,12.49850341796875,-0.06173750013113022,-0.5553625226020813,-0.28380000591278076
1766408811300507400,12.51350732421875,-0.06916250288486481,-0.6278250217437744,-0.391462504863739
1766408811315511600,12.528511474609376,-0.09679999947547913,-0.7833374738693237,-0.5054500102996826
1766408811325514200,12.53851416015625,-0.13089999556541443,-0.8834375143051147,-0.5788750052452087
1766408811335517000,12.548516845703125,-0.1522125005722046,-0.946274995803833,-0.6503750085830688
1766408811350521000,12.56352099609375,-0.14588749408721924,-0.9409124851226807,-0.7601000070571899
1766408811365525000,12.57852490234375,-0.13516250252723694,-0.8387500047683716,-0.8579999804496765
1766408811380529200,12.593529052734375,-0.06270000338554382,-0.6841999888420105,-0.8665249943733215
1766408811390531600,12.603531494140626,0.0010999999940395355,-0.5670499801635742,-0.7823749780654907
1766408811400534300,12.6135341796875,0.0448249988257885,-0.47657498717308044,-0.6237000226974487
1766408811410537000,12.623536865234374,0.05115000158548355,-0.4371125102043152,-0.4010874927043915
1766408811420539600,12.63353955078125,0.0010999999940395355,-0.44769999384880066,-0.14863750338554382
1766408811435543800,12.648543701171874,-0.11811249703168869,-0.40617498755455017,0.19126249849796295
1766408811450547700,12.663547607421876,-0.22687499225139618,-0.26138749718666077,0.368087500333786
1766408811465552000,12.6785517578125,-0.3152875006198883,-0.14093749225139618,0.32766249775886536
1766408811475554600,12.688554443359376,-0.33233749866485596,-0.11962500214576721,0.2125750035047531
1766408811485557000,12.698556884765624,-0.2971374988555908,-0.15166249871253967,0.04633750021457672
1766408811495560000,12.708559814453125,-0.23746250569820404,-0.18892499804496765,-0.12086249887943268
1766408811510563800,12.723563720703124,-0.11178749799728394,-0.20803749561309814,-0.21779999136924744
1766408811520566500,12.73356640625,-0.027637500315904617,-0.18782499432563782,-0.20611250400543213
1766408811530569200,12.7435693359375,0.03849999979138374,-0.12182500213384628,-0.17311249673366547
1766408811540572000,12.753572021484375,0.07672499865293503,-0.05678749829530716,-0.141075000166893
1766408811550574600,12.76357470703125,0.09487500041723251,-0.023787500336766243,-0.12196250259876251
1766408811565578800,12.778578857421875,0.10559999942779541,-0.031212499365210533,-0.12086249887943268
1766408811575581200,12.788581298828126,0.10339999943971634,-0.04399999976158142,-0.12402500212192535
1766408811585584000,12.798584228515624,0.10559999942779541,-0.05362499877810478,-0.11976250261068344
1766408811600588000,12.813588134765626,0.11728750169277191,-0.03657500073313713,-0.08992499858140945
1766408811615592200,12.82859228515625,0.12044999748468399,0.029424998909235,-0.026124998927116394
1766408811625595000,12.838594970703125,0.12581250071525574,0.0966624990105629,0.020762499421834946
1766408811635597600,12.84859765625,0.13433749973773956,0.17971250414848328,0.06764999777078629
1766408811650601500,12.8636015625,0.13750000298023224,0.27871251106262207,0.12622499465942383
1766408811665605600,12.878605712890625,0.13433749973773956,0.36822500824928284,0.1592250019311905
1766408811675608300,12.8886083984375,0.1247124969959259,0.40878748893737793,0.22316250205039978
1766408811685611000,12.898611083984376,0.07672499865293503,0.47478750348091125,0.5002250075340271
1766408811700615200,12.913615234375,0.0789249986410141,0.6612374782562256,0.28929999470710754
1766408811710617900,12.923617919921876,0.04592499881982803,0.19139999151229858,-0.023924998939037323
1766408811720620500,12.93362060546875,0.05871250107884407,-0.24213749170303345,-0.34251248836517334
1766408811735624400,12.94862451171875,0.08318749815225601,-0.4104374945163727,-0.5043500065803528
1766408811745627100,12.958627197265624,0.08098749816417694,-0.3188624978065491,-0.43834999203681946
1766408811755629800,12.9686298828125,0.06187500059604645,-0.17393749952316284,-0.3190000057220459
1766408811765632500,12.978632568359375,0.03203750029206276,-0.0002749999985098839,-0.19648750126361847
1766408811775635200,12.98863525390625,0.010724999941885471,0.07108750194311142,-0.11233749985694885
1766408811785638000,12.998637939453126,-0.0031624999828636646,0.05609999969601631,-0.07081250101327896
1766408811795640600,13.008640625,0.007562499959021807,-0.11110000312328339,-0.043175000697374344
1766408811805643300,13.018643310546874,0.06297499686479568,-0.35186249017715454,-0.01966249942779541
1766408811815646000,13.02864599609375,0.12787500023841858,-0.5522000193595886,0.0016499999910593033
1766408811825648600,13.038648681640625,0.1704999953508377,-0.6852999925613403,0.02722499892115593
1766408811840652500,13.053652587890625,0.18012499809265137,-0.7279250025749207,0.09116250276565552
1766408811850655500,13.063655517578125,0.16513749957084656,-0.6576625108718872,0.14327499270439148
1766408811860658000,13.073657958984375,0.14492499828338623,-0.5340499877929688,0.18479999899864197
1766408811870660900,13.083660888671876,0.11508750170469284,-0.35612499713897705,0.21367499232292175
1766408811880663300,13.093663330078124,0.08951249718666077,-0.12498749792575836,0.21463750302791595
1766408811890666000,13.103666015625,0.08098749816417694,0.11151249706745148,0.19016249477863312
1766408811900668700,13.113668701171875,0.08208750188350677,0.3128125071525574,0.1443749964237213
1766408811910671400,13.12367138671875,0.08744999766349792,0.42899999022483826,0.10395000129938126
1766408811920674000,13.133674072265626,0.09487500041723251,0.4683249890804291,0.08043749630451202
1766408811935678000,13.148677978515625,0.10766249895095825,0.45980000495910645,0.06875000149011612
1766408811950682000,13.16368212890625,0.11082500219345093,0.46736249327659607,0.05169999971985817
1766408811960684800,13.173684814453125,0.10986249893903732,0.4758875072002411,0.058024998754262924
1766408811970687500,13.1836875,0.10339999943971634,0.45663750171661377,0.08689999580383301
1766408811980690200,13.193690185546876,0.07782500237226486,0.4683249890804291,0.12306249886751175
1766408811995694000,13.208694091796875,0.02461249940097332,0.5813499689102173,0.15496249496936798
1766408812010698200,13.2236982421875,-0.012649999931454659,0.7975000143051147,0.1592250019311905
1766408812020701000,13.233700927734375,-0.027637500315904617,0.9147874712944031,0.15496249496936798
1766408812030703600,13.24370361328125,-0.03616249933838844,0.9924749732017517,0.14217500388622284
1766408812040706300,13.253706298828124,-0.06063750013709068,0.9989374876022339,0.12196250259876251
1766408812055710200,13.268710205078126,-0.04468749836087227,1.0542124509811401,0.04743750020861626
1766408812075715600,13.288715576171874,0.05967500060796738,1.108662486076355,-0.19442500174045563
1766408812085718300,13.29871826171875,0.10449999570846558,1.0041625499725342,-0.35199999809265137
1766408812100722400,13.313722412109374,0.0906125009059906,0.6632999777793884,-0.595924973487854
1766408812110725000,13.32372509765625,0.06503749638795853,0.38843750953674316,-0.7291625142097473
1766408812120727600,13.3337275390625,0.0681999996304512,0.07108750194311142,-0.7994250059127808
1766408812130730500,13.34373046875,0.09803749620914459,-0.21119999885559082,-0.7664250135421753
1766408812145734400,13.358734375,0.13433749973773956,-0.370012491941452,-0.4511374831199646
1766408812155737000,13.368737060546875,0.16307500004768372,-0.46268749237060547,-0.14217500388622284
1766408812165739800,13.37873974609375,0.16417500376701355,-0.42858749628067017,0.18700000643730164
1766408812180743700,13.39374365234375,0.19181250035762787,-0.17820000648498535,0.620537519454956
1766408812195747800,13.408747802734375,0.2887499928474426,0.05609999969601631,0.8687250018119812
1766408812205750500,13.41875048828125,0.34952500462532043,0.1999250054359436,0.8846749663352966
1766408812215753000,13.4287529296875,0.3867875039577484,0.31817498803138733,0.8101499676704407
1766408812230757000,13.443757080078125,0.42198750376701355,0.4012250006198883,0.5832750201225281
1766408812240759800,13.453759765625,0.4422000050544739,0.43642500042915344,0.38087499141693115
1766408812255763700,13.468763671875,0.43793749809265137,0.4833124876022339,0.04743750020861626
1766408812265766700,13.4787666015625,0.42294999957084656,0.47052499651908875,-0.16458749771118164
1766408812280770600,13.4937705078125,0.41772499680519104,0.4193750023841858,-0.42762500047683716
1766408812290773200,13.503773193359375,0.42625001072883606,0.3821125030517578,-0.5799750089645386
1766408812300776000,13.51377587890625,0.4197874963283539,0.3511750102043152,-0.6919000148773193
1766408812310778600,13.523778564453124,0.4059000015258789,0.33096250891685486,-0.7430499792098999
1766408812320781300,13.53378125,0.4006749987602234,0.2820124924182892,-0.7046874761581421
1766408812330784000,13.543783935546875,0.3942124843597412,0.2223374992609024,-0.5746124982833862
1766408812340786700,13.55378662109375,0.3899500072002411,0.15950000286102295,-0.38609999418258667
1766408812350789400,13.563789306640626,0.3856875002384186,0.1274625062942505,-0.19112500548362732
1766408812360792000,13.5737919921875,0.3718000054359436,0.12319999933242798,-0.037812501192092896
1766408812370794800,13.583794677734375,0.3441624939441681,0.11357499659061432,0.058024998754262924
1766408812380797400,13.59379736328125,0.31322500109672546,0.13062499463558197,0.10491249710321426
1766408812390800100,13.603800048828125,0.2770625054836273,0.12209999561309814,0.11137499660253525
1766408812400802600,13.613802490234375,0.24186250567436218,0.11783749610185623,0.08786249905824661
1766408812415806700,13.628806640625,0.20569999516010284,0.11151249706745148,0.02186249941587448
1766408812425809400,13.638809326171875,0.20350000262260437,0.10408750176429749,-0.04207500070333481
1766408812435812000,13.64881201171875,0.21848750114440918,0.11261250078678131,-0.10381250083446503
1766408812445814800,13.658814697265624,0.24186250567436218,0.11577499657869339,-0.15606249868869781
1766408812455817500,13.6688173828125,0.26743748784065247,0.11687500029802322,-0.19965000450611115
1766408812465820200,13.678820068359375,0.29301249980926514,0.11467500030994415,-0.24447499215602875
1766408812480824000,13.693823974609375,0.3217499852180481,0.11151249706745148,-0.31693750619888306
1766408812505830700,13.71883056640625,0.33137500286102295,0.0976250022649765,-0.3764750063419342
1766408812515833600,13.72883349609375,0.3207874894142151,0.05719999969005585,-0.3679499924182892
1766408812530837500,13.74383740234375,0.2961750030517578,-0.030112499371170998,-0.2998875081539154
1766408812540840000,13.75383984375,0.2727999985218048,-0.11329999566078186,-0.20295000076293945
1766408812555844000,13.768843994140624,0.23333749175071716,-0.19634999334812164,-0.05169999971985817
1766408812570848300,13.78384814453125,0.18975000083446503,-0.26138749718666077,0.02722499892115593
1766408812580851000,13.793850830078124,0.1588124930858612,-0.3018124997615814,0.03355000168085098
1766408812595854800,13.808854736328126,0.1321374922990799,-0.3166624903678894,0.02928750030696392
1766408812605857500,13.818857421875,0.1321374922990799,-0.31033748388290405,0.058024998754262924
1766408812615860500,13.828860595703125,0.1396999955177307,-0.27623748779296875,0.09968750178813934
1766408812625863000,13.83886279296875,0.14492499828338623,-0.23471249639987946,0.13158750534057617
1766408812640867000,13.8538671875,0.12361250072717667,-0.24213749170303345,0.15606249868869781
1766408812650869800,13.863869873046875,0.11302500218153,-0.28366249799728394,0.14217500388622284
1766408812665873700,13.878873779296875,0.11838749796152115,-0.392425000667572,0.09322500228881836
1766408812675876400,13.88887646484375,0.1289750039577484,-0.48606249690055847,0.06132499873638153
1766408812690880500,13.903880615234375,0.17902499437332153,-0.5659499764442444,-0.0037124999798834324
1766408812705884400,13.918884521484374,0.2620750069618225,-0.5020124912261963,-0.08676250278949738
1766408812715887000,13.92888720703125,0.34732499718666077,-0.39022499322891235,-0.12622499465942383
1766408812730891000,13.94389111328125,0.49857500195503235,-0.2623499929904938,-0.15716250240802765
1766408812740894000,13.95389404296875,0.5732374787330627,-0.24860000610351562,-0.15716250240802765
1766408812750896400,13.963896484375,0.6051374673843384,-0.2560249865055084,-0.15606249868869781
1766408812765900500,13.978900634765624,0.5710374712944031,-0.392425000667572,-0.17943750321865082
1766408812775903200,13.9889033203125,0.5081999897956848,-0.568149983882904,-0.2157374918460846
1766408812790907100,14.0039072265625,0.3601124882698059,-0.7844374775886536,-0.2689499855041504
1766408812800909800,14.013909912109375,0.2578125,-0.8589624762535095,-0.27953749895095825
1766408812810912800,14.023912841796875,0.18645000457763672,-0.8771125078201294,-0.2583625018596649
1766408812820915200,14.033915283203125,0.15234999358654022,-0.8845375180244446,-0.2157374918460846
1766408812830918000,14.04391796875,0.15234999358654022,-0.891962468624115,-0.17737500369548798
1766408812840920600,14.053920654296874,0.16307500004768372,-0.8962249755859375,-0.14217500388622284
1766408812855924700,14.0689248046875,0.16417500376701355,-0.8439750075340271,-0.0952875018119812
1766408812865927200,14.07892724609375,0.14066250622272491,-0.7631250023841858,-0.05692499876022339
1766408812875930000,14.08893017578125,0.09707500040531158,-0.6736124753952026,-0.01759999990463257
1766408812890934000,14.10393408203125,0.012924999929964542,-0.5627874732017517,0.035750001668930054
1766408812905938000,14.11893798828125,-0.05953750014305115,-0.49568748474121094,0.060224998742341995
1766408812920942000,14.133942138671875,-0.0873124971985817,-0.43174999952316284,0.004812499973922968
1766408812930944800,14.14394482421875,-0.06806249916553497,-0.4147000014781952,-0.07933750003576279
1766408812945948700,14.15894873046875,0.004399999976158142,-0.4371125102043152,-0.2657875120639801
1766408812955951400,14.168951416015625,0.05871250107884407,-0.4754749834537506,-0.3946250081062317
1766408812970955500,14.18395556640625,0.12044999748468399,-0.5190625190734863,-0.5000874996185303
1766408812980958200,14.193958251953125,0.14396250247955322,-0.5522000193595886,-0.47244998812675476
1766408812990960600,14.203960693359376,0.1480875015258789,-0.568149983882904,-0.38830000162124634
1766408813000963300,14.21396337890625,0.13750000298023224,-0.5574250221252441,-0.26468750834465027
1766408813010966300,14.22396630859375,0.11838749796152115,-0.5297874808311462,-0.11769999563694
1766408813020968700,14.23396875,0.08524999767541885,-0.48826250433921814,0.0494999997317791
1766408813030971400,14.243971435546875,0.033137500286102295,-0.4604874849319458,0.21463750302791595
1766408813040974000,14.25397412109375,-0.027637500315904617,-0.44673749804496765,0.3606624901294708
1766408813055978200,14.268978271484375,-0.08937499672174454,-0.4604874849319458,0.5310249924659729
1766408813065981000,14.27898095703125,-0.09253749996423721,-0.4680500030517578,0.6088500022888184
1766408813075983600,14.288983642578126,-0.057475000619888306,-0.4754749834537506,0.649275004863739
1766408813085986300,14.298986328125,0.013887500390410423,-0.489362508058548,0.6503750085830688
1766408813100990200,14.313990234375,0.18328750133514404,-0.5659499764442444,0.5971624851226807
1766408813115994000,14.328994140625,0.3367374837398529,-0.6107749938964844,0.4937624931335449
1766408813125996800,14.338996826171876,0.4123624861240387,-0.6171000003814697,0.40851250290870667
1766408813135999500,14.34899951171875,0.46873748302459717,-0.5915250182151794,0.322299987077713
1766408813146002200,14.359002197265625,0.515625,-0.5446375012397766,0.2529999911785126
1766408813156004900,14.3690048828125,0.5539875030517578,-0.4637874960899353,0.19978749752044678
1766408813171009000,14.384009033203125,0.597712516784668,-0.2890250086784363,0.1592250019311905
1766408813181011700,14.39401171875,0.597712516784668,-0.164450004696846,0.13901250064373016
1766408813191014100,14.40401416015625,0.5763999819755554,-0.05252499878406525,0.10395000129938126
1766408813201017000,14.41401708984375,0.5465624928474426,0.06462500244379044,0.0494999997317791
1766408813211019800,14.424019775390626,0.5348749756813049,0.2190375030040741,-0.026124998927116394
1766408813221022500,14.4340224609375,0.5444999933242798,0.37894999980926514,-0.12306249886751175
1766408813236026400,14.4490263671875,0.5710374712944031,0.5515124797821045,-0.23485000431537628
1766408813246029000,14.459029052734374,0.561412513256073,0.5748875141143799,-0.2540999948978424
1766408813261033000,14.474032958984376,0.47519999742507935,0.5546749830245972,-0.21779999136924744
1766408813271035600,14.48403564453125,0.38142499327659607,0.5504124760627747,-0.15386250615119934
1766408813286039800,14.499039794921876,0.20886249840259552,0.47052499651908875,-0.018562499433755875
1766408813301043700,14.514043701171875,0.06929999589920044,0.5268999934196472,0.05169999971985817
1766408813316048000,14.5290478515625,0.08951249718666077,0.20308749377727509,0.15070000290870667
1766408813331051800,14.5440517578125,-0.028737500309944153,0.2297624945640564,0.2008875012397766
1766408813341054500,14.554054443359375,-0.05953750014305115,0.11893749982118607,0.22536249458789825
1766408813351057200,14.56405712890625,-0.09047500044107437,-0.02694999985396862,0.3328875005245209
1766408813361059800,14.574059814453125,-0.12773749232292175,-0.0845625028014183,0.4628250002861023
1766408813371062500,14.5840625,-0.1671999990940094,-0.07383749634027481,0.5747500061988831
1766408813381065200,14.594065185546874,-0.1681624948978424,-0.01209999993443489,0.6247999668121338
1766408813396069400,14.6090693359375,-0.09679999947547913,0.08813749998807907,0.5673249959945679
1766408813406072000,14.619072021484374,-0.04152499884366989,0.07851249724626541,0.4479750096797943
1766408813421076000,14.634075927734376,-0.011687500402331352,-0.045099999755620956,0.22962500154972076
1766408813431079000,14.644078857421874,-0.018012499436736107,-0.15798750519752502,0.11563749611377716
1766408813446082800,14.659082763671876,-0.027637500315904617,-0.21119999885559082,-0.0057749999687075615
1766408813456085200,14.669085205078124,-0.026537500321865082,-0.09941250085830688,-0.04097500070929527
1766408813466088000,14.679087890625,-0.015949999913573265,0.10615000128746033,-0.050599999725818634
1766408813476091000,14.6890908203125,0.010724999941885471,0.36506250500679016,-0.07713750004768372
1766408813491094800,14.7040947265625,0.04372499883174896,0.5908374786376953,-0.16142499446868896
1766408813501097200,14.71409716796875,0.042762499302625656,0.5823125243186951,-0.21889999508857727
1766408813516101400,14.729101318359374,0.006462499964982271,0.5046250224113464,-0.345674991607666
1766408813526104000,14.73910400390625,-0.02969999983906746,0.4460499882698059,-0.4298250079154968
1766408813536106800,14.749106689453125,-0.06599999964237213,0.3852750062942505,-0.49898749589920044
1766408813546109400,14.759109375,-0.09253749996423721,0.3394874930381775,-0.5395500063896179
1766408813556112100,14.769112060546876,-0.0989999994635582,0.31597501039505005,-0.5619624853134155
1766408813566114800,14.77911474609375,-0.09157499670982361,0.34264999628067017,-0.5779125094413757
1766408813581118700,14.79411865234375,-0.0882750004529953,0.4545750021934509,-0.5821750164031982
1766408813591121700,14.80412158203125,-0.10958749800920486,0.5823125243186951,-0.5523374676704407
1766408813601124000,14.8141240234375,-0.15537500381469727,0.81454998254776,-0.5202999711036682
1766408813611126800,14.824126708984375,-0.05321250110864639,0.8731250166893005,-0.48730000853538513
1766408813621129500,14.83412939453125,0.05871250107884407,0.9136874675750732,-0.4329875111579895
1766408813631132400,14.84413232421875,0.09803749620914459,0.9850500226020813,-0.3147374987602234
1766408813646136300,14.85913623046875,0.07466249912977219,1.0819875001907349,0.024062499403953552
1766408813656139000,14.869138916015626,0.04688749834895134,1.1767250299453735,0.29672500491142273
1766408813666141700,14.8791416015625,0.07150000333786011,1.0680999755859375,0.4511374831199646
1766408813676144400,14.889144287109374,0.11838749796152115,1.0595749616622925,0.4575999975204468
1766408813686147000,14.89914697265625,0.16197499632835388,1.0371625423431396,0.3445749878883362
1766408813696149800,14.909149658203125,0.1812250018119812,1.015987515449524,0.11137499660253525
1766408813706152400,14.91915234375,0.17586250603199005,1.0319374799728394,-0.1933249980211258
1766408813721156400,14.93415625,0.18012499809265137,1.008424997329712,-0.6087124943733215
1766408813736160500,14.949160400390625,0.20679999887943268,0.6058250069618225,-0.7749499678611755
1766408813746163200,14.9591630859375,0.1886499971151352,0.3244999945163727,-0.6470749974250793
1766408813756165600,14.96916552734375,0.17586250603199005,0.11687500029802322,-0.38499999046325684
1766408813766168600,14.97916845703125,0.17366249859333038,-0.025849999859929085,-0.04839999973773956
1766408813776171300,14.989171142578124,0.17902499437332153,-0.09831249713897705,0.2807750105857849
1766408813786174000,14.999174072265625,0.19607499241828918,-0.04936249926686287,0.5235999822616577
1766408813796176400,15.00917626953125,0.23237499594688416,0.07631249725818634,0.6535375118255615
1766408813811180500,15.0241806640625,0.256850004196167,0.3244999945163727,0.7324625253677368
1766408813821183200,15.034183349609375,0.27390000224113464,0.426800012588501,0.7334250211715698
1766408813831186000,15.04418603515625,0.29727500677108765,0.5429875254631042,0.7143124938011169
1766408813841188400,15.054188232421875,0.3293125033378601,0.5461499691009521,0.6876375079154968
1766408813851191300,15.06419140625,0.3484250009059906,0.4844124913215637,0.6279624700546265
1766408813866195200,15.0791953125,0.3910500109195709,0.3959999978542328,0.4596624970436096
1766408813881199000,15.09419921875,0.5220875144004822,0.3170749843120575,0.21147499978542328
1766408813891201800,15.104201904296875,0.6466624736785889,0.2340250015258789,0.028324998915195465
1766408813906206000,15.1192060546875,0.866112470626831,0.01993750035762787,-0.21147499978542328
1766408813916208600,15.129208740234375,0.9993500113487244,-0.1451999992132187,-0.28806251287460327
