time,seconds_elapsed,z,y,x
1766408798997363200,0.21036328125,-0.2858625054359436,-0.3768875002861023,0.3623124957084656
1766408799012366800,0.225366943359375,-0.3338499963283539,-0.025299999862909317,0.15661250054836273
1766408799022369500,0.23536962890625,-0.3455374836921692,0.14836250245571136,0.056512501090765
1766408799032372000,0.2453720703125,-0.3338499963283539,0.37097498774528503,-0.07562500238418579
1766408799042374400,0.25537451171875,-0.2806375026702881,0.3922874927520752,-0.1097249984741211
1766408799052376800,0.265376953125,-0.20913749933242798,0.2516250014305115,-0.09363749623298645
1766408799062379300,0.275379150390625,-0.1368124932050705,0.16005000472068787,-0.03726249933242798
1766408799072382000,0.2853818359375,-0.07919999957084656,0.17806249856948853,0.05967500060796738
1766408799082384100,0.295384033203125,-0.06971249729394913,0.20363749563694,0.14066250622272491
1766408799092386800,0.30538671875,-0.07067500054836273,0.21326249837875366,0.16843749582767487
1766408799102389200,0.31538916015625,-0.045099999755620956,0.27293750643730164,0.16307500004768372
1766408799112392000,0.325391845703125,-0.023787500336766243,0.3517250120639801,0.12787500023841858
1766408799122394400,0.335394287109375,0.03684999793767929,0.6254875063896179,-0.0085249999538064
1766408799132396800,0.345396728515625,0.2147749960422516,1.2369500398635864,-0.2769249975681305
1766408799142399200,0.355399169921875,0.4129124879837036,2.1903750896453857,-0.3759250044822693
1766408799152401700,0.365401611328125,0.4950000047683716,1.6076500415802002,-0.5581125020980835
1766408799162404400,0.375404296875,0.4927999973297119,1.271049976348877,-0.5495874881744385
1766408799172406800,0.38540673828125,0.4470124840736389,1.0080125331878662,-0.4345000088214874
1766408799182409200,0.3954091796875,0.34581249952316284,0.7129374742507935,-0.2609750032424927
1766408799202414000,0.4154140625,0.22439999878406525,0.2718375027179718,0.1821874976158142
1766408799222419200,0.435419189453125,0.17531250417232513,0.08442500233650208,0.4857875108718872
1766408799232421600,0.445421630859375,0.17215000092983246,0.04496249929070473,0.49114999175071716
1766408799242424000,0.455424072265625,0.19978749752044678,0.048124998807907104,0.41126251220703125
1766408799252426500,0.465426513671875,0.24034999310970306,0.13021250069141388,0.2620750069618225
1766408799262429000,0.475428955078125,0.24351249635219574,0.2857249975204468,0.0681999996304512
1766408799272431600,0.485431640625,0.2147749960422516,0.4008125066757202,-0.11178749799728394
1766408799282434300,0.495434326171875,0.20198750495910645,0.42102500796318054,-0.23746250569820404
1766408799292436700,0.505436767578125,0.19978749752044678,0.42528748512268066,-0.304562509059906
1766408799302439200,0.515439208984375,0.2083124965429306,0.43697500228881836,-0.30566251277923584
1766408799312441600,0.525441650390625,0.2563000023365021,0.4497624933719635,-0.2630375027656555
1766408799322444000,0.535444091796875,0.31913748383522034,0.4987125098705292,-0.24392500519752502
1766408799332446500,0.545446533203125,0.37564998865127563,0.5467000007629395,-0.27582499384880066
1766408799342449000,0.555448974609375,0.36918750405311584,0.754462480545044,-0.06916250288486481
1766408799352451600,0.56545166015625,0.3489750027656555,0.6830999851226807,0.21848750114440918
1766408799362454000,0.5754541015625,0.40012499690055847,0.255887508392334,0.3973749876022339
1766408799372456400,0.58545654296875,0.47891250252723694,0.05238749831914902,0.46873748302459717
1766408799382459100,0.595459228515625,0.5141124725341797,0.17489999532699585,0.35694998502731323
1766408799402464000,0.615464111328125,0.45980000495910645,0.9120374917984009,-0.24818749725818634
1766408799412466700,0.625466796875,0.4342249929904938,1.3338874578475952,-0.6166874766349792
1766408799422468900,0.63546875,0.4288625121116638,1.6663625240325928,-0.9799624681472778
1766408799432471600,0.645471435546875,0.4171749949455261,1.8910374641418457,-1.307075023651123
1766408799442474000,0.655473876953125,0.39806249737739563,1.7483124732971191,-1.4125374555587769
1766408799452476400,0.665476318359375,0.39586248993873596,1.1347874402999878,-1.215362548828125
1766408799462478800,0.675478759765625,0.4501749873161316,0.5285499691963196,-0.7050999999046326
1766408799472481300,0.685481201171875,0.5663625001907349,0.18768750131130219,-0.1214125007390976
1766408799482484000,0.69548388671875,0.6738874912261963,0.05128749832510948,0.3590124845504761
1766408799492486700,0.705486572265625,0.7548750042915344,0.09075000137090683,0.5923500061035156
1766408799502489000,0.715489013671875,0.8305000066757202,0.18342499434947968,0.544362485408783
1766408799512491500,0.725491455078125,0.8581374883651733,0.24736249446868896,0.3302749991416931
1766408799522494000,0.735493896484375,0.8188124895095825,0.28036248683929443,0.0906125009059906
1766408799532496400,0.745496337890625,0.7654625177383423,0.2569875121116638,-0.1331000030040741
1766408799542498800,0.755498779296875,0.7420874834060669,0.19304999709129333,-0.30566251277923584
1766408799552501500,0.76550146484375,0.7484124898910522,0.12168750166893005,-0.3983374834060669
1766408799562504000,0.77550390625,0.7526749968528748,0.031075000762939453,-0.4324375092983246
1766408799572506400,0.78550634765625,0.7804499864578247,-0.04235000163316727,-0.4218499958515167
1766408799582508800,0.7955087890625,0.8262374997138977,-0.10944999754428864,-0.38128748536109924
1766408799592511200,0.80551123046875,0.8666625022888184,-0.16376249492168427,-0.30882498621940613
1766408799602513700,0.815513671875,0.8816499710083008,-0.21821250021457672,-0.1106875017285347
1766408799612516000,0.82551611328125,0.9018625020980835,-0.12223749607801437,0.227012500166893
1766408799622518800,0.835518798828125,1.01048743724823,-0.21175000071525574,0.544362485408783
1766408799632521200,0.845521240234375,1.1735625267028809,-0.35667499899864197,0.6659125089645386
1766408799642524000,0.85552392578125,1.3322374820709229,-0.39393749833106995,0.5817624926567078
1766408799652526300,0.8655263671875,1.3950749635696411,-0.30662500858306885,0.3718000054359436
1766408799662528800,0.87552880859375,1.4280749559402466,-0.24268749356269836,0.12677499651908875
1766408799672531200,0.88553125,1.4920125007629395,-0.22990000247955322,-0.06173750013113022
1766408799682533600,0.89553369140625,1.568737506866455,-0.15853749215602875,-0.13516250252723694
1766408799692536000,0.9055361328125,1.5452250242233276,-0.023237500339746475,-0.11811249703168869
1766408799702538500,0.91553857421875,1.5016374588012695,0.03959999978542328,-0.045787498354911804
1766408799712541200,0.925541259765625,1.4653375148773193,0.09075000137090683,0.02241249941289425
1766408799722543600,0.935543701171875,1.4312374591827393,0.18988749384880066,0.02983750030398369
1766408799732546000,0.945546142578125,1.350387454032898,0.18562500178813934,-0.040424998849630356
1766408799742548500,0.955548583984375,1.184149980545044,0.048124998807907104,-0.1863124966621399
1766408799752551000,0.965551025390625,0.9700624942779541,-0.027499999850988388,-0.3301374912261963
1766408799762553300,0.97555322265625,0.7761874794960022,0.10243749618530273,-0.3429250121116638
1766408799772556000,0.98555615234375,0.7176125049591064,0.1387374997138977,-0.25671249628067017
1766408799782558700,0.995558837890625,0.7495124936103821,0.10779999941587448,-0.14794999361038208
1766408799792561200,1.00556103515625,0.7847124934196472,0.279262512922287,-0.08195000141859055
1766408799802563600,1.0155634765625,0.8614374995231628,0.513700008392334,-0.08304999768733978
1766408799812566000,1.02556591796875,0.951912522315979,0.6627500057220459,-0.1331000030040741
1766408799822568400,1.035568359375,1.04458749294281,0.7895249724388123,-0.19593749940395355
1766408799832571000,1.04557080078125,1.042525053024292,0.6564249992370605,-0.16073749959468842
1766408799842573600,1.055573486328125,0.889074981212616,0.5626500248908997,-0.011687500402331352
1766408799852576000,1.065575927734375,0.7068874835968018,0.6532624959945679,0.1821874976158142
1766408799862578400,1.075578369140625,0.6067875027656555,0.7129374742507935,0.3217499852180481
1766408799872580900,1.085580810546875,0.5630624890327454,0.735212504863739,0.3260124921798706
1766408799882583300,1.095583251953125,0.49816250801086426,0.6532624959945679,0.23553749918937683
1766408799892585700,1.105585693359375,0.41923749446868896,0.5743374824523926,0.14176249504089355
1766408799902588200,1.115588134765625,0.4012250006198883,0.4273499846458435,0.09267500042915344
1766408799912590800,1.1255908203125,0.4235000014305115,0.2377374917268753,0.10656250268220901
1766408799922593000,1.135593017578125,0.4342249929904938,0.13653749227523804,0.14492499828338623
1766408799932595700,1.145595703125,0.41827499866485596,0.16637499630451202,0.15028749406337738
1766408799942598400,1.155598388671875,0.3628624975681305,0.30483749508857727,0.07576250284910202
1766408799952600800,1.165600830078125,0.20308749377727509,0.5541250109672546,-0.05857500061392784
1766408799962603300,1.175603271484375,0.054999999701976776,0.9483374953269958,-0.16499999165534973
1766408799972605700,1.185605712890625,-0.08249999582767487,1.0803375244140625,-0.19483749568462372
1766408799982608100,1.195608154296875,-0.24323749542236328,-0.46639999747276306,0.025575000792741776
1766408799992610600,1.205610595703125,-0.2167000025510788,-1.2557874917984009,0.11935000121593475
1766408800002613000,1.215613037109375,0.0016499999910593033,-0.7699999809265137,-0.06379999965429306
1766408800012615700,1.22561572265625,0.09226249903440475,-0.11591249704360962,-0.22893749177455902
1766408800022618000,1.2356181640625,0.007012499962002039,0.38046249747276306,-0.19277499616146088
1766408800032620500,1.24562060546875,-0.06971249729394913,0.27073749899864197,0.002199999988079071
1766408800042623000,1.255623046875,-0.040837500244379044,-0.31185001134872437,0.17366249859333038
1766408800052625400,1.26562548828125,0.035750001668930054,-0.9394000172615051,0.22481249272823334
1766408800072630300,1.28563037109375,0.33934998512268066,-0.6059625148773193,-0.1331000030040741
1766408800082632700,1.2956328125,0.6173750162124634,0.05555000156164169,-0.6283749938011169
1766408800092635100,1.30563525390625,0.44481250643730164,-0.10422500222921371,-0.8190875053405762
1766408800102638000,1.31563818359375,0.1625249981880188,-0.15001249313354492,-0.8084999918937683
1766408800112640300,1.32564013671875,-0.035612501204013824,-0.05829999968409538,-0.8329749703407288
1766408800122643000,1.335642822265625,-0.22618749737739563,-0.12333749979734421,-0.7882875204086304
1766408800132645400,1.345645263671875,-0.36684998869895935,-0.5483499765396118,-0.7338374853134155
1766408800142647800,1.355647705078125,-0.4339500069618225,-1.0491249561309814,-0.608162522315979
1766408800152650200,1.365650146484375,-0.4797374904155731,-1.4357750415802002,-0.47079998254776
1766408800162652700,1.375652587890625,-0.6374499797821045,-1.4645124673843384,-0.31308749318122864
1766408800212665000,1.4256650390625,-0.4328500032424927,-1.0032000541687012,-0.07562500238418579
1766408800232670000,1.445669921875,-0.23897500336170197,-1.007462501525879,-0.10326249897480011
1766408800252674800,1.4656748046875,-0.15702499449253082,-1.12681245803833,-0.15757499635219574
1766408800302687500,1.5156875,0.2307250052690506,-0.9372000098228455,-0.3983374834060669
1766408800342697500,1.555697509765625,0.19882500171661377,-0.571862518787384,-0.2854500114917755
1766408800352700000,1.565699951171875,0.14767499268054962,-0.4248749911785126,-0.21615000069141388
1766408800362702300,1.575702392578125,0.05706249922513962,-0.30758750438690186,-0.11604999750852585
1766408800372704800,1.585704833984375,-0.040837500244379044,-0.21175000071525574,-0.032999999821186066
1766408800382707200,1.595707275390625,-0.10477499663829803,-0.11701250076293945,-0.010587500408291817
1766408800392709600,1.605709716796875,-0.12292499840259552,-0.020075000822544098,-0.027637500315904617
1766408800402712300,1.61571240234375,-0.12718750536441803,0.06407500058412552,-0.06599999964237213
1766408800412714500,1.625714599609375,-0.11756250262260437,0.11522500216960907,-0.0798875018954277
1766408800422717200,1.63571728515625,-0.08882500231266022,0.17599999904632568,-0.06173750013113022
1766408800432719600,1.6457197265625,-0.0387750007212162,0.2644124925136566,-0.01484999991953373
1766408800442722000,1.65572216796875,0.009212499484419823,0.3783999979496002,0.018149999901652336
1766408800452724500,1.665724365234375,0.035750001668930054,0.5498625040054321,0.02241249941289425
1766408800462727200,1.67572705078125,0.047575000673532486,0.7385125160217285,0.030937500298023224
1766408800472729300,1.685729248046875,0.04963750019669533,0.9088749885559082,0.04372499883174896
1766408800492734500,1.705734375,-0.0057749999687075615,0.9333499670028687,0.04262499883770943
1766408800512739600,1.725739501953125,0.08910000324249268,0.6873624920845032,0.20143750309944153
1766408800612764200,1.82576416015625,0.06558749824762344,0.706475019454956,-0.02447500079870224
1766408800712789000,1.9257890625,0.14547500014305115,1.10385000705719,0.06077500060200691
1766408800782806300,1.99580615234375,0.005912499967962503,0.07686249911785126,-0.1788875013589859
1766408800852823600,2.065823486328125,0.03904999792575836,-0.47382500767707825,0.37400001287460327
1766408800862826200,2.075826171875,-0.10161250084638596,-0.4866124987602234,0.5732374787330627
1766408800872828700,2.08582861328125,-0.22522500157356262,-0.5110874772071838,0.7106000185012817
1766408800892833500,2.10583349609375,-0.2699125111103058,-0.3959999978542328,0.7180249691009521
1766408800907837400,2.12083740234375,-0.18576249480247498,-0.2447499930858612,0.6136624813079834
1766408800917840000,2.13083984375,-0.10477499663829803,-0.12017499655485153,0.5348749756813049
1766408800927842300,2.14084228515625,-0.004674999974668026,0.03753750026226044,0.454987496137619
1766408800937844700,2.1508447265625,0.10615000128746033,0.14932499825954437,0.37290000915527344
1766408800947847200,2.16084716796875,0.22220000624656677,0.15358750522136688,0.2727999985218048
1766408800957849600,2.170849609375,0.32023748755455017,-0.005087499972432852,0.17902499437332153
1766408800967852000,2.18085205078125,0.3895374834537506,-0.23196250200271606,0.08002500236034393
1766408800977854500,2.1908544921875,0.41827499866485596,-0.47808748483657837,-0.021175000816583633
1766408800987857200,2.200857177734375,0.36822500824928284,-0.7752249836921692,-0.12347500026226044
1766408800997859600,2.210859619140625,0.284074991941452,-0.9733625054359436,-0.22357499599456787
1766408801007862000,2.220862060546875,0.2147749960422516,-1.0042999982833862,-0.24914999306201935
1766408801022865700,2.23586572265625,0.11137499660253525,-0.8445249795913696,-0.13089999556541443
1766408801032868000,2.2458681640625,0.01347499992698431,-0.6144874691963196,-0.01484999991953373
1766408801042870500,2.25587060546875,-0.11013749986886978,-0.4408249855041504,0.10876250267028809
1766408801057874200,2.270874267578125,-0.30291250348091125,-0.34072500467300415,0.24296249449253082
1766408801067876900,2.280876953125,-0.3870624899864197,-0.2905375063419342,0.2961750030517578
1766408801077879600,2.290879638671875,-0.4137375056743622,-0.1297999918460846,0.33880001306533813
1766408801087882000,2.300882080078125,-0.3946250081062317,0.04606249928474426,0.3984749913215637
1766408801097884200,2.31088427734375,-0.37331250309944153,0.15248750150203705,0.4857875108718872
1766408801107886800,2.320886962890625,-0.3998500108718872,0.19841249287128448,0.5912500023841858
1766408801117889300,2.33088916015625,-0.4563624858856201,0.202674999833107,0.6722375154495239
1766408801127891700,2.3408916015625,-0.4830375015735626,0.13227500021457672,0.7020750045776367
1766408801142895400,2.355895263671875,-0.4787749946117401,-0.5324000120162964,0.49004998803138733
1766408801152897800,2.365897705078125,-0.5138375163078308,-0.7688999772071838,0.3057999908924103
1766408801162900200,2.375900146484375,-0.5820375084877014,-0.7837499976158142,0.2620750069618225
1766408801202910200,2.41591015625,-0.38183748722076416,-1.043762445449829,-0.13846249878406525
1766408801212912600,2.42591259765625,-0.33274999260902405,-0.8849499821662903,-0.19593749940395355
1766408801227916500,2.44091650390625,-0.2508000135421753,-0.5505499839782715,-0.1896124929189682
1766408801237919000,2.4509189453125,-0.23154999315738678,-0.2628999948501587,-0.1223749965429306
1766408801247921400,2.46092138671875,-0.26881250739097595,0.03863750025629997,0.009624999947845936
1766408801257924000,2.470924072265625,-0.32848748564720154,0.26647499203681946,0.1886499971151352
1766408801267926300,2.48092626953125,-0.3988874852657318,0.3357749879360199,0.3718000054359436
1766408801277928700,2.4909287109375,-0.48730000853538513,0.26551249623298645,0.4974749982357025
1766408801287931400,2.500931396484375,-0.5788750052452087,0.15578749775886536,0.5092999935150146
1766408801297933800,2.510933837890625,-0.6650875210762024,0.05664999783039093,0.43037500977516174
1766408801307936300,2.520936279296875,-0.7482749819755554,-0.018975000828504562,0.32394999265670776
1766408801317939000,2.53093896484375,-0.8270624876022339,-0.12127500027418137,0.24296249449253082
1766408801327941400,2.54094140625,-0.9058499932289124,-0.26496249437332153,0.21422499418258667
1766408801337943800,2.55094384765625,-0.9644249677658081,-0.38651248812675476,0.24406249821186066
1766408801347946200,2.5609462890625,-0.9900000095367432,-0.5036625266075134,0.2983750104904175
1766408801357948700,2.57094873046875,-0.9879375100135803,-0.6443250179290771,0.35475000739097595
1766408801367951000,2.580951171875,-0.9697874784469604,-0.7859500050544739,0.37290000915527344
1766408801377953500,2.59095361328125,-0.8888000249862671,-0.821150004863739,0.3282124996185303
1766408801387956200,2.600956298828125,-0.7983250021934509,-0.9105250239372253,0.28022500872612
1766408801397958700,2.610958740234375,-0.7204999923706055,-0.9372000098228455,0.22591249644756317
1766408801407961000,2.620961181640625,-0.6619250178337097,-0.8967750072479248,0.16087499260902405
1766408801417963500,2.630963623046875,-0.6235625147819519,-0.8626750111579895,0.10119999945163727
1766408801427966000,2.640966064453125,-0.6118749976158142,-0.8263750076293945,0.04372499883174896
1766408801437968400,2.650968505859375,-0.6224625110626221,-0.7145875096321106,-0.023375000804662704
1766408801447971000,2.66097119140625,-0.6576625108718872,-0.5494499802589417,-0.08415000140666962
1766408801457973800,2.670973876953125,-0.7321875095367432,-0.3971000015735626,-0.1223749965429306
1766408801467976200,2.68097607421875,-0.8153749704360962,-0.29163751006126404,-0.14368750154972076
1766408801477978600,2.690978515625,-0.870787501335144,-0.2106499969959259,-0.15867500007152557
1766408801487981000,2.70098095703125,-0.8867374658584595,-0.18191249668598175,-0.17572499811649323
1766408801497983500,2.7109833984375,-0.863224983215332,-0.16802500188350677,-0.21518750488758087
1766408801507986000,2.72098583984375,-0.8131750226020813,-0.11275000125169754,-0.28008750081062317
1766408801517988400,2.73098828125,-0.7482749819755554,-0.049912501126527786,-0.3301374912261963
1766408801532992300,2.7459921875,-0.678974986076355,-0.003987499978393316,-0.303600013256073
1766408801542994700,2.75599462890625,-0.6811749935150146,-0.01677500084042549,-0.21188749372959137
1766408801552997000,2.7659970703125,-0.7397499680519104,-0.053075000643730164,-0.09473749995231628
1766408801562999600,2.77599951171875,-0.7929624915122986,-0.08181250095367432,-0.009487500414252281
1766408801573002000,2.786001953125,-0.806850016117096,-0.09459999948740005,0.02241249941289425
1766408801588006000,2.801005859375,-0.8696874976158142,-0.19359999895095825,0.03946249932050705
1766408801598008300,2.81100830078125,-0.9112125039100647,-0.2171124964952469,0.03629999980330467
1766408801608010800,2.8210107421875,-0.9186375141143799,-0.1989624947309494,0.0448249988257885
1766408801618013400,2.831013427734375,-0.8930624723434448,-0.1765500009059906,0.05444999784231186
1766408801628015900,2.841015869140625,-0.8441125154495239,-0.18507499992847443,0.05224999785423279
1766408801638018300,2.851018310546875,-0.7951624989509583,-0.18411250412464142,0.0340999998152256
1766408801648020700,2.861020751953125,-0.7567999958992004,-0.18411250412464142,0.007562499959021807
1766408801658023200,2.871023193359375,-0.7173374891281128,-0.20858749747276306,-0.03189999982714653
1766408801668025600,2.881025634765625,-0.6683874726295471,-0.20432500541210175,-0.09157499670982361
1766408801678028300,2.8910283203125,-0.6204000115394592,-0.1648624986410141,-0.1447875052690506
1766408801693032000,2.906031982421875,-0.5340499877929688,-0.049912501126527786,-0.1447875052690506
1766408801708035600,2.92103564453125,-0.43078750371932983,0.08648750185966492,-0.038224998861551285
1766408801718038000,2.9310380859375,-0.3572250008583069,0.12168750166893005,0.04262499883770943
1766408801733041700,2.946041748046875,-0.2400749921798706,0.022549999877810478,0.14602500200271606
1766408801748045300,2.96104541015625,-0.15908749401569366,-0.17874999344348907,0.1896124929189682
1766408801758048000,2.971048095703125,-0.1335124969482422,-0.29163751006126404,0.16733749210834503
1766408801768050400,2.981050537109375,-0.12072499841451645,-0.3470500111579895,0.11935000121593475
1766408801778052900,2.991052978515625,-0.11123749613761902,-0.3385249972343445,0.06503749638795853
1766408801788055600,3.0010556640625,-0.11329999566078186,-0.27568748593330383,0.011824999935925007
1766408801798058000,3.01105810546875,-0.12718750536441803,-0.22247499227523804,-0.02447500079870224
1766408801813061600,3.0260615234375,-0.12925000488758087,-0.1531749963760376,-0.02447500079870224
1766408801823064000,3.03606396484375,-0.13461250066757202,-0.05829999968409538,-0.03506249934434891
1766408801833066500,3.04606640625,-0.16871249675750732,-0.005087499972432852,-0.040424998849630356
1766408801843069000,3.05606884765625,-0.22192500531673431,0.006599999964237213,-0.05004999786615372
1766408801858072800,3.07107275390625,-0.2730749845504761,0.08868750184774399,-0.13089999556541443
1766408801873076500,3.086076416015625,-0.26455000042915344,0.3400374948978424,-0.24062499403953552
1766408801883079000,3.096078857421875,-0.23045000433921814,0.5455999970436096,-0.3375625014305115
1766408801893081600,3.10608154296875,-0.1942874938249588,0.7331500053405762,-0.4633750021457672
1766408801903084000,3.116083984375,-0.148499995470047,0.8673499822616577,-0.5836874842643738
1766408801913086700,3.126086669921875,-0.08566249907016754,0.955762505531311,-0.6487249732017517
1766408801928090400,3.14109033203125,-0.052662499248981476,0.9483374953269958,-0.6103624701499939
1766408801938092800,3.1510927734375,-0.08346249908208847,0.8619874715805054,-0.5293750166893005
1766408801948095200,3.16109521484375,-0.14313749969005585,0.7565249800682068,-0.4355999827384949
1766408801958097700,3.17109765625,-0.20281249284744263,0.606374979019165,-0.33329999446868896
1766408801968100000,3.18110009765625,-0.22618749737739563,0.38472500443458557,-0.23539999127388
1766408801978102500,3.1911025390625,-0.20913749933242798,0.17379999160766602,-0.17256249487400055
1766408801988105200,3.201105224609375,-0.1527625024318695,0.03753750026226044,-0.16609999537467957
1766408801998108000,3.21110791015625,-0.0728750005364418,-0.04881250113248825,-0.22687499225139618
1766408802008110300,3.2211103515625,0.0038499999791383743,-0.1190750002861023,-0.29397499561309814
1766408802018112800,3.23111279296875,0.08689999580383301,-0.12553749978542328,-0.31212499737739563
1766408802028115200,3.241115234375,0.17861250042915344,-0.09569999575614929,-0.2854500114917755
1766408802053121500,3.26612158203125,0.31171250343322754,-0.0999625027179718,-0.14272500574588776
1766408802063124000,3.2761240234375,0.33412501215934753,-0.13612499833106995,-0.09583749622106552
1766408802078127900,3.2911279296875,0.34264999628067017,-0.23732499778270721,-0.09473749995231628
1766408802103134000,3.316134033203125,0.30744999647140503,-0.3609375059604645,-0.025437500327825546
1766408802118137600,3.3311376953125,0.2755500078201294,-0.3470500111579895,0.03629999980330467
1766408802133141200,3.346141357421875,0.22536249458789825,-0.36410000920295715,0.04688749834895134
1766408802153146400,3.366146484375,0.15729999542236328,-0.4291374981403351,0.05967500060796738
1766408802183153700,3.396153564453125,0.06778749823570251,-0.26826250553131104,0.007562499959021807
1766408802198157600,3.411157470703125,0.037950001657009125,-0.09776250272989273,0.007562499959021807
1766408802213161500,3.426161376953125,0.022962499409914017,0.048124998807907104,0.06187500059604645
1766408802223164000,3.436163818359375,0.002749999985098839,0.09184999763965607,0.1321374922990799
1766408802238167600,3.45116748046875,-0.03451250120997429,0.05458749830722809,0.24296249449253082
1766408802248170000,3.461169921875,-0.04936249926686287,-0.036024998873472214,0.27912500500679016
1766408802258172700,3.471172607421875,-0.06324999779462814,-0.13928750157356262,0.29727500677108765
1766408802268175000,3.481175048828125,-0.08346249908208847,-0.2063875049352646,0.2993375062942505
1766408802278177800,3.491177734375,-0.11646249890327454,-0.2853125035762787,0.30896249413490295
1766408802288180200,3.50118017578125,-0.16238750517368317,-0.4002625048160553,0.3398999869823456
1766408802298182700,3.5111826171875,-0.20817500352859497,-0.5110874772071838,0.38032498955726624
1766408802308185000,3.52118505859375,-0.24543750286102295,-0.5803874731063843,0.4090625047683716
1766408802318187800,3.531187744140625,-0.26138749718666077,-0.5792874693870544,0.4208875000476837
1766408802328190200,3.541190185546875,-0.25712499022483826,-0.526075005531311,0.41442498564720154
1766408802338192600,3.551192626953125,-0.2475000023841858,-0.4386250078678131,0.39957499504089355
1766408802348195000,3.561195068359375,-0.23471249639987946,-0.3279374837875366,0.3708375096321106
1766408802363198700,3.57619873046875,-0.1751749962568283,-0.2171124964952469,0.27816250920295715
1766408802378202600,3.59120263671875,-0.09735000133514404,-0.23196250200271606,0.16307500004768372
1766408802388205000,3.601205078125,-0.04839999973773956,-0.334262490272522,0.07782500237226486
1766408802398207500,3.61120751953125,-0.030249999836087227,-0.46309998631477356,-0.009487500414252281
1766408802408210200,3.621210205078125,-0.03987500071525574,-0.5941374897956848,-0.10326249897480011
1766408802418212600,3.631212646484375,-0.06751249730587006,-0.7401624917984009,-0.20982499420642853
1766408802428215000,3.641215087890625,-0.09308750182390213,-0.8860499858856201,-0.3152875006198883
1766408802438217500,3.651217529296875,-0.12182500213384628,-0.9957749843597412,-0.4302375018596649
1766408802448220200,3.66122021484375,-0.1527625024318695,-1.0128250122070312,-0.5720000267028809
1766408802463223800,3.676223876953125,-0.1676124930381775,-0.7038624882698059,-0.828712522983551
1766408802473226200,3.686226318359375,-0.15702499449253082,-0.31088748574256897,-0.9352750182151794
1766408802483229000,3.69622900390625,-0.14313749969005585,0.06627500057220459,-0.9193249940872192
1766408802493231400,3.7062314453125,-0.1335124969482422,0.3133625090122223,-0.7871875166893005
1766408802508235000,3.721235107421875,-0.18466250598430634,0.3251875042915344,-0.49953749775886536
1766408802518237400,3.731237548828125,-0.27101248502731323,0.1046374961733818,-0.30250000953674316
1766408802528239900,3.741239990234375,-0.3423750102519989,-0.16706250607967377,-0.15331250429153442
1766408802543243800,3.756243896484375,-0.41909998655319214,-0.3993000090122223,-0.06173750013113022
1766408802553246200,3.76624609375,-0.443574994802475,-0.3683624863624573,-0.07878749817609787
1766408802563249000,3.776248779296875,-0.4339500069618225,-0.19786250591278076,-0.13420000672340393
1766408802573251300,3.786251220703125,-0.4020499885082245,0.040699999779462814,-0.19910000264644623
1766408802583253800,3.796253662109375,-0.36684998869895935,0.28036248683929443,-0.267300009727478
1766408802593256200,3.806256103515625,-0.3264249861240387,0.4358749985694885,-0.3269749879837036
1766408802603259000,3.8162587890625,-0.2763749957084656,0.47850000858306885,-0.37386250495910645
1766408802613261300,3.82626123046875,-0.22192500531673431,0.44440001249313354,-0.3844499886035919
1766408802628265000,3.841264892578125,-0.17723749577999115,0.3900874853134155,-0.30882498621940613
1766408802643268900,3.856268798828125,-0.1985500007867813,0.3507624864578247,-0.16403749585151672
1766408802653271300,3.866271240234375,-0.2283875048160553,0.34113749861717224,-0.08841250091791153
1766408802668275200,3.881275146484375,-0.2582249939441681,0.31130000948905945,-0.038224998861551285
1766408802678277600,3.891277587890625,-0.26138749718666077,0.2761000096797943,-0.05101250112056732
1766408802688280000,3.901280029296875,-0.25712499022483826,0.21216249465942383,-0.07452499866485596
1766408802698282500,3.911282470703125,-0.2560249865055084,0.13763749599456787,-0.07232499867677689
1766408802708285000,3.921284912109375,-0.2741749882698059,0.07686249911785126,-0.01484999991953373
1766408802718287600,3.93128759765625,-0.31679999828338623,0.022549999877810478,0.09803749620914459
1766408802728290000,3.9412900390625,-0.3605250120162964,-0.0030249999836087227,0.21848750114440918
1766408802738292500,3.95129248046875,-0.392425000667572,-0.018975000828504562,0.3004375100135803
1766408802748295200,3.961295166015625,-0.4222624897956848,-0.032862499356269836,0.3324750065803528
1766408802758297600,3.971297607421875,-0.4328500032424927,-0.017875000834465027,0.28984999656677246
1766408802768300000,3.981300048828125,-0.4115374982357025,-0.0030249999836087227,0.1886499971151352
1766408802788305200,4.00130517578125,-0.32532501220703125,0.0364375002682209,-0.027637500315904617
1766408802798307600,4.0113076171875,-0.2730749845504761,0.082225002348423,-0.09047500044107437
1766408802808310000,4.02131005859375,-0.2167000025510788,0.13557499647140503,-0.11921250075101852
1766408802818312700,4.031312744140625,-0.15812499821186066,0.15578749775886536,-0.10216250270605087
1766408802828315100,4.041315185546875,-0.10381250083446503,0.11742500215768814,-0.04468749836087227
1766408802838317600,4.051317626953125,-0.07067500054836273,0.05555000156164169,0.04262499883770943
1766408802848320300,4.0613203125,-0.08992499858140945,-0.025299999862909317,0.14176249504089355
1766408802858322700,4.07132275390625,-0.142037495970726,-0.10518749803304672,0.2525874972343445
1766408802868325000,4.0813251953125,-0.19318750500679016,-0.1414874941110611,0.3750999867916107
1766408802883329000,4.0963291015625,-0.2624875009059906,-0.09776250272989273,0.5263500213623047
1766408802893331500,4.10633154296875,-0.3040125072002411,-0.07218749821186066,0.5667750239372253
1766408802903334100,4.116334228515625,-0.3273875117301941,-0.04661250114440918,0.5358374714851379
1766408802918337800,4.131337890625,-0.3381125032901764,-0.018975000828504562,0.4081000089645386
1766408802928340200,4.14134033203125,-0.32958748936653137,0.03437500074505806,0.32394999265670776
1766408802938343000,4.151343017578125,-0.3188624978065491,0.15248750150203705,0.2461249977350235
1766408802948345300,4.161345458984375,-0.3114374876022339,0.279262512922287,0.19071249663829803
1766408802958347800,4.17134765625,-0.29438748955726624,0.3548874855041504,0.17902499437332153
1766408802968350200,4.18135009765625,-0.2699125111103058,0.3783999979496002,0.21518750488758087
1766408802978353000,4.191352783203125,-0.2550624907016754,0.3676750063896179,0.27390000224113464
1766408802988355300,4.201355224609375,-0.25712499022483826,0.28462499380111694,0.31968748569488525
1766408802998357800,4.211357666015625,-0.2773374915122986,0.18342499434947968,0.317487508058548
1766408803018363000,4.23136279296875,-0.3125374913215637,0.1344749927520752,0.16197499632835388
1766408803028365300,4.241365234375,-0.31033748388290405,0.15468749403953552,0.02667500078678131
1766408803038368000,4.251367919921875,-0.2849000096321106,0.1280124932527542,-0.10436250269412994
1766408803053371600,4.26637158203125,-0.18039999902248383,0.05238749831914902,-0.2428250014781952
1766408803068375600,4.28137548828125,-0.03135000169277191,0.011962499469518661,-0.28654998540878296
1766408803088380400,4.30138037109375,0.08483749628067017,-0.05829999968409538,-0.21092499792575836
1766408803098382800,4.3113828125,0.11990000307559967,-0.13722500205039978,-0.16926249861717224
1766408803108385500,4.321385498046875,0.1551000028848648,-0.2106499969959259,-0.15867500007152557
1766408803123389200,4.33638916015625,0.19882500171661377,-0.2106499969959259,-0.1938749998807907
1766408803138393000,4.35139306640625,0.2381500005722046,-0.07961250096559525,-0.22783750295639038
1766408803148395500,4.3613955078125,0.2574000060558319,0.021587500348687172,-0.22151249647140503
1766408803158398000,4.37139794921875,0.2765125036239624,0.12058749794960022,-0.19167499244213104
1766408803168400400,4.381400390625,0.29782500863075256,0.17710000276565552,-0.14904999732971191
1766408803178403000,4.391403076171875,0.30098751187324524,0.18878750503063202,-0.08195000141859055
1766408803188405800,4.40140576171875,0.2798124849796295,0.17710000276565552,0.0042624999769032
1766408803198408200,4.411408203125,0.2574000060558319,0.14726249873638153,0.0789249986410141
1766408803208410600,4.42141064453125,0.2424124926328659,0.15152500569820404,0.12155000120401382
1766408803218413000,4.4314130859375,0.2531374990940094,0.202674999833107,0.11618749797344208
1766408803228415700,4.441415771484375,0.2989250123500824,0.28036248683929443,0.07246249914169312
1766408803238418400,4.45141845703125,0.36492499709129333,0.34113749861717224,0.018149999901652336
1766408803253422000,4.466422119140625,0.45663750171661377,0.4529249966144562,-0.010587500408291817
1766408803268425700,4.48142578125,0.5141124725341797,0.5711749792098999,0.10339999943971634
1766408803283429600,4.4964296875,0.55673748254776,0.5455999970436096,0.32284998893737793
1766408803293432300,4.506432373046875,0.5663625001907349,0.45608749985694885,0.432574987411499
1766408803308436000,4.52143603515625,0.5237374901771545,0.2868250012397766,0.454987496137619
1766408803318438400,4.5314384765625,0.4618625044822693,0.1652749925851822,0.39311251044273376
1766408803328440800,4.54144091796875,0.3926999866962433,0.057750001549720764,0.2993375062942505
1766408803338443300,4.551443359375,0.3372874855995178,-0.025299999862909317,0.18645000457763672
1766408803348446000,4.561446044921875,0.2903999984264374,-0.09033749997615814,0.06503749638795853
1766408803358448400,4.571448486328125,0.24777500331401825,-0.15950000286102295,-0.0424874983727932
1766408803368451000,4.581451171875,0.2125750035047531,-0.21285000443458557,-0.12031249701976776
1766408803383454700,4.596454833984375,0.1775124967098236,-0.26826250553131104,-0.19167499244213104
1766408803398458600,4.611458740234375,0.1732500046491623,-0.25753748416900635,-0.19813749194145203
1766408803408461000,4.6214609375,0.16046249866485596,-0.20212499797344208,-0.17682500183582306
1766408803418463500,4.63146337890625,0.13695000112056732,-0.13928750157356262,-0.12457499653100967
1766408803428466000,4.6414658203125,0.10395000129938126,-0.08291249722242355,-0.0424874983727932
1766408803438468600,4.651468505859375,0.05706249922513962,-0.03712499886751175,0.06393750011920929
1766408803448471300,4.66147119140625,0.008112499490380287,-0.02956249937415123,0.1545500010251999
1766408803458473700,4.6714736328125,-0.040837500244379044,-0.0658624991774559,0.21518750488758087
1766408803468476200,4.68147607421875,-0.08030000329017639,-0.12333749979734421,0.24928750097751617
1766408803478478600,4.691478515625,-0.10161250084638596,-0.19043749570846558,0.27816250920295715
1766408803488481300,4.701481201171875,-0.10381250083446503,-0.2628999948501587,0.31212499737739563
1766408803498483700,4.711483642578125,-0.09624999761581421,-0.30758750438690186,0.3558500111103058
1766408803508486400,4.721486328125,-0.0845625028014183,-0.31831249594688416,0.4081000089645386
1766408803518488800,4.73148876953125,-0.0728750005364418,-0.3129499852657318,0.44536250829696655
1766408803528491300,4.7414912109375,-0.062150001525878906,-0.2947999835014343,0.4357374906539917
1766408803538493700,4.75149365234375,-0.04619999974966049,-0.2628999948501587,0.3526875078678131
1766408803548496400,4.761496337890625,-0.018562499433755875,-0.2437874972820282,0.19923749566078186
1766408803563500000,4.7765,0.026262499392032623,-0.31088748574256897,-0.032999999821186066
1766408803573502500,4.78650244140625,0.03148749843239784,-0.39077499508857727,-0.10642500221729279
1766408803583505200,4.796505126953125,0.0016499999910593033,-0.48551249504089355,-0.09583749622106552
1766408803593507800,4.8065078125,-0.062150001525878906,-0.5537124872207642,-0.02447500079870224
1766408803608511500,4.821511474609375,-0.16128750145435333,-0.572825014591217,0.13433749973773956
1766408803618514000,4.831513916015625,-0.19744999706745148,-0.5355625152587891,0.23127499222755432
1766408803628516400,4.841516357421875,-0.21133749186992645,-0.4641999900341034,0.2887499928474426
1766408803638519000,4.85151904296875,-0.2124374955892563,-0.3470500111579895,0.2546499967575073
1766408803648521500,4.861521484375,-0.2102375030517578,-0.22453749179840088,0.13750000298023224
1766408803658524200,4.871524169921875,-0.2059749960899353,-0.12759999930858612,-0.026537500321865082
1766408803673527800,4.88652783203125,-0.20707499980926514,-0.07218749821186066,-0.21834999322891235
1766408803683530500,4.896530517578125,-0.21559999883174896,-0.07535000145435333,-0.2630375027656555
1766408803698534100,4.9115341796875,-0.23801249265670776,-0.13186250627040863,-0.21615000069141388
1766408803708536800,4.921536865234375,-0.26455000042915344,-0.17765000462532043,-0.13626250624656677
1766408803718539300,4.931539306640625,-0.29768750071525574,-0.24695000052452087,-0.04675000160932541
1766408803728542000,4.9415419921875,-0.32848748564720154,-0.28737500309944153,0.01924999989569187
1766408803738544400,4.95154443359375,-0.34869998693466187,-0.29589998722076416,0.06393750011920929
1766408803748547000,4.961547119140625,-0.3529624938964844,-0.24584999680519104,0.06297499686479568
1766408803763550700,4.97655078125,-0.34869998693466187,-0.07535000145435333,-0.013749999925494194
1766408803773553400,4.986553466796875,-0.3455374836921692,0.05128749832510948,-0.08415000140666962
1766408803788557000,5.00155712890625,-0.3316499888896942,0.21752500534057617,-0.19910000264644623
1766408803798559500,5.0115595703125,-0.30937498807907104,0.29961249232292175,-0.2652375102043152
1766408803808562000,5.02156201171875,-0.2827000021934509,0.3357749879360199,-0.30566251277923584
1766408803818564600,5.031564697265625,-0.2560249865055084,0.32725000381469727,-0.3227125108242035
1766408803828567300,5.0415673828125,-0.2358125001192093,0.2601499855518341,-0.318450003862381
1766408803838569700,5.05156982421875,-0.22192500531673431,0.12484999746084213,-0.296037495136261
1766408803848572200,5.061572265625,-0.2167000025510788,-0.027499999850988388,-0.281187504529953
1766408803858574800,5.071574951171875,-0.21876250207424164,-0.14464999735355377,-0.27582499384880066
1766408803868577300,5.081577392578125,-0.22948749363422394,-0.2063875049352646,-0.26413750648498535
1766408803883581200,5.096581298828125,-0.2699125111103058,-0.2564375102519989,-0.2129874974489212
1766408803893583600,5.10658349609375,-0.31033748388290405,-0.2714250087738037,-0.15867500007152557
1766408803903586300,5.11658642578125,-0.35942500829696655,-0.27568748593330383,-0.0989999994635582
1766408803913588700,5.126588623046875,-0.4020499885082245,-0.2714250087738037,-0.038224998861551285
1766408803923591200,5.136591064453125,-0.42006251215934753,-0.2523125112056732,0.012787500396370888
1766408803933593600,5.146593505859375,-0.4105750024318695,-0.19580000638961792,0.033137500286102295
1766408803943596300,5.15659619140625,-0.3764750063419342,-0.1073874980211258,0.03203750029206276
1766408803953598700,5.1665986328125,-0.3231250047683716,0.0034374999813735485,0.033137500286102295
1766408803963601400,5.176601318359375,-0.2624875009059906,0.10353749990463257,0.05335000157356262
1766408803973603800,5.186603759765625,-0.22192500531673431,0.16637499630451202,0.09803749620914459
1766408803983606500,5.1966064453125,-0.2102375030517578,0.19731250405311584,0.15661250054836273
1766408803993609000,5.20660888671875,-0.2134000062942505,0.19415000081062317,0.21312500536441803
1766408804003611600,5.216611572265625,-0.22302499413490295,0.16747500002384186,0.24076250195503235
1766408804013614000,5.226614013671875,-0.2358125001192093,0.12594999372959137,0.21848750114440918
1766408804023616500,5.236616455078125,-0.26028749346733093,0.06943749636411667,0.1704999953508377
1766408804033619200,5.246619140625,-0.2815999984741211,0.02474999986588955,0.11935000121593475
1766408804043621600,5.25662158203125,-0.2965874969959259,0.004537499975413084,0.09267500042915344
1766408804058625500,5.27162548828125,-0.3051125109195709,0.015124999918043613,0.1023000031709671
1766408804073629400,5.28662939453125,-0.27527499198913574,0.06407500058412552,0.13103750348091125
1766408804088633000,5.301633056640625,-0.22522500157356262,0.14932499825954437,0.1812250018119812
1766408804098635500,5.311635498046875,-0.20074999332427979,0.17806249856948853,0.21312500536441803
1766408804108638200,5.32163818359375,-0.19222499430179596,0.20473749935626984,0.21092499792575836
1766408804118640600,5.331640625,-0.1985500007867813,0.22288750112056732,0.17366249859333038
1766408804133644500,5.34664453125,-0.21876250207424164,0.25052499771118164,0.07039999961853027
1766408804143647200,5.356647216796875,-0.21986250579357147,0.2877874970436096,-0.007424999959766865
1766408804153649700,5.366649658203125,-0.21559999883174896,0.32945001125335693,-0.06379999965429306
1766408804163652000,5.376652099609375,-0.20817500352859497,0.37523749470710754,-0.08304999768733978
1766408804178656000,5.391656005859375,-0.2059749960899353,0.4017750024795532,-0.038224998861551285
1766408804188658400,5.401658447265625,-0.21133749186992645,0.4221250116825104,-0.019112499430775642
1766408804198661000,5.4116611328125,-0.2209624946117401,0.42102500796318054,-0.06710000336170197
1766408804208663600,5.42166357421875,-0.2326499968767166,0.3880249857902527,-0.17682500183582306
1766408804218666200,5.431666259765625,-0.22618749737739563,0.3698749840259552,-0.3195500075817108
1766408804228668700,5.441668701171875,-0.19744999706745148,0.3698749840259552,-0.4600749909877777
1766408804243672300,5.45667236328125,-0.1335124969482422,0.32945001125335693,-0.6050000190734863
1766408804253674800,5.4666748046875,-0.07603749632835388,0.31130000948905945,-0.6518874764442444
1766408804263677700,5.476677734375,-0.010999999940395355,0.3166624903678894,-0.6604124903678894
1766408804278681300,5.491681396484375,0.08483749628067017,0.33041250705718994,-0.5890499949455261
1766408804293685000,5.50668505859375,0.1508374959230423,0.22495000064373016,-0.42281249165534973
1766408804303687700,5.516687744140625,0.16472500562667847,0.08332499861717224,-0.30140000581741333
1766408804318691600,5.531691650390625,0.17008750140666962,-0.12759999930858612,-0.17682500183582306
1766408804328694000,5.541694091796875,0.18067499995231628,-0.2213750034570694,-0.14904999732971191
1766408804338696700,5.55169677734375,0.19552500545978546,-0.25437501072883606,-0.14904999732971191
1766408804348699100,5.56169921875,0.22439999878406525,-0.21917499601840973,-0.1405249983072281
1766408804358701600,5.57170166015625,0.2722499966621399,-0.14258749783039093,-0.113987497985363
1766408804368704000,5.5817041015625,0.3361875116825104,-0.07438749819993973,-0.05637500062584877
1766408804378706700,5.591706787109375,0.4012250006198883,-0.032862499356269836,0.0032999999821186066
1766408804388709400,5.60170947265625,0.4501749873161316,-0.023237500339746475,0.04262499883770943
1766408804398711800,5.6117119140625,0.47795000672340393,-0.05623750016093254,0.06187500059604645
1766408804408714500,5.621714599609375,0.5066875219345093,-0.0966624990105629,0.04688749834895134
1766408804418717000,5.631717041015625,0.5513749718666077,-0.1307625025510788,0.009624999947845936
1766408804428719400,5.64171923828125,0.6078875064849854,-0.14685000479221344,-0.045787498354911804
1766408804448724500,5.661724365234375,0.7389249801635742,-0.04028749838471413,-0.16183750331401825
1766408804458727200,5.67172705078125,0.7878749966621399,0.04922499880194664,-0.2087250053882599
1766408804468729600,5.6817294921875,0.8102874755859375,0.1120624989271164,-0.23430000245571136
1766408804478732300,5.691732177734375,0.8112499713897705,0.1313125044107437,-0.23430000245571136
1766408804488734700,5.701734619140625,0.7932375073432922,0.12594999372959137,-0.20666250586509705
1766408804498737200,5.711737060546875,0.7474499940872192,0.0929500013589859,-0.14794999361038208
1766408804513741300,5.7267412109375,0.6536750197410583,-0.028599999845027924,-0.040424998849630356
1766408804523743700,5.73674365234375,0.5950999855995178,-0.13296249508857727,-0.002062499988824129
1766408804533746200,5.74674609375,0.5513749718666077,-0.18933749198913574,-0.010587500408291817
1766408804548750000,5.76175,0.5013250112533569,-0.16802500188350677,-0.057475000619888306
1766408804558752800,5.771752685546875,0.46722498536109924,-0.1116499975323677,-0.0873124971985817
1766408804568755200,5.781755126953125,0.4246000051498413,-0.036024998873472214,-0.09693749994039536
1766408804578757600,5.791757568359375,0.3745499849319458,0.013062499463558197,-0.07342500239610672
1766408804588760300,5.80176025390625,0.3255999982357025,0.018287500366568565,-0.03506249934434891
1766408804598763000,5.811762939453125,0.28503748774528503,-0.0008249999955296516,-0.002062499988824129
1766408804608765400,5.821765380859375,0.26372501254081726,-0.03918749839067459,0.02461249940097332
1766408804618768000,5.831767822265625,0.2679874897003174,-0.0966624990105629,0.04592499881982803
1766408804628770600,5.8417705078125,0.28187498450279236,-0.1531749963760376,0.07356250286102295
1766408804648775700,5.861775634765625,0.329862505197525,-0.12870000302791595,0.1321374922990799
1766408804663779600,5.876779541015625,0.329862505197525,-0.03382499888539314,0.19717499613761902
1766408804673782000,5.886781982421875,0.30855000019073486,0.021587500348687172,0.24406249821186066
1766408804683784400,5.896784423828125,0.2765125036239624,0.008799999952316284,0.2824249863624573
1766408804693787100,5.906787109375,0.23608750104904175,-0.05829999968409538,0.2919124960899353
1766408804703789800,5.916789794921875,0.19030000269412994,-0.16596250236034393,0.27912500500679016
1766408804713792300,5.926792236328125,0.14657500386238098,-0.2586374878883362,0.23759999871253967
1766408804728796200,5.941796142578125,0.12319999933242798,-0.28847500681877136,0.13859999179840088
1766408804738798600,5.951798583984375,0.11357499659061432,-0.2820124924182892,0.05444999784231186
1766408804748801300,5.96180126953125,0.10188750177621841,-0.2480500042438507,-0.03189999982714653
1766408804758804000,5.971803955078125,0.09019999951124191,-0.18301250040531158,-0.09363749623298645
1766408804768806400,5.981806396484375,0.07315000146627426,-0.09569999575614929,-0.113987497985363
1766408804778808800,5.991808837890625,0.05073750019073486,-0.017875000834465027,-0.10642500221729279
1766408804788811500,6.0018115234375,0.015537500381469727,0.008799999952316284,-0.0873124971985817
1766408804798814000,6.01181396484375,-0.04839999973773956,-0.017875000834465027,-0.07026249915361404
1766408804808816600,6.021816650390625,-0.14313749969005585,-0.1073874980211258,-0.06283749639987946
1766408804823820300,6.0368203125,-0.28696250915527344,-0.23416249454021454,-0.09363749623298645
1766408804833823000,6.046822998046875,-0.346637487411499,-0.25437501072883606,-0.14588749408721924
1766408804843825400,6.056825439453125,-0.37427499890327454,-0.25437501072883606,-0.2129874974489212
1766408804858829300,6.071829345703125,-0.3764750063419342,-0.17874999344348907,-0.2928749918937683
1766408804873833000,6.0868330078125,-0.35089999437332153,-0.038087498396635056,-0.281187504529953
1766408804888837000,6.101837158203125,-0.3359124958515167,-0.05087500065565109,-0.18741250038146973
1766408804903840800,6.1168408203125,-0.35516250133514404,-0.18301250040531158,-0.028737500309944153
1766408804918844400,6.131844482421875,-0.41690000891685486,-0.3172124922275543,0.11935000121593475
1766408804933848300,6.146848388671875,-0.4787749946117401,-0.3811500072479248,0.2194499969482422
1766408804958855000,6.17185498046875,-0.5649874806404114,-0.2895750105381012,0.20776249468326569
1766408804968857300,6.181857421875,-0.5703499913215637,-0.23100000619888306,0.13433749973773956
1766408804983861000,6.196861083984375,-0.522362470626831,-0.1190750002861023,-0.025437500327825546
1766408805003866000,6.2168662109375,-0.4489375054836273,0.14079999923706055,-0.19593749940395355
1766408805018870000,6.2318701171875,-0.44673749804496765,0.25905001163482666,-0.23856249451637268
1766408805028872400,6.24187255859375,-0.4499000012874603,0.24626250565052032,-0.24172499775886536
1766408805038875100,6.251875244140625,-0.46268749237060547,0.15578749775886536,-0.23966249823570251
1766408805048877600,6.261877685546875,-0.4745124876499176,0.007699999958276749,-0.22357499599456787
1766408805063881500,6.276881591796875,-0.4446749985218048,-0.19580000638961792,-0.2055625021457672
1766408805073884200,6.28688427734375,-0.3998500108718872,-0.2947999835014343,-0.20762500166893005
1766408805088888000,6.30188818359375,-0.34443750977516174,-0.3587374985218048,-0.21092499792575836
1766408805108893000,6.321892822265625,-0.3614875078201294,-0.33316248655319214,-0.16830000281333923
1766408805118895600,6.3318955078125,-0.40837499499320984,-0.319412499666214,-0.12773749232292175
1766408805133899500,6.3468994140625,-0.48083749413490295,-0.31404998898506165,-0.08937499672174454
1766408805148903400,6.3619033203125,-0.522362470626831,-0.2745875120162964,-0.07232499867677689
1766408805158905900,6.37190576171875,-0.5202999711036682,-0.22027499973773956,-0.07562500238418579
1766408805168908300,6.381908203125,-0.49156248569488525,-0.15853749215602875,-0.0873124971985817
1766408805178911200,6.3919111328125,-0.43188750743865967,-0.08181250095367432,-0.10546249896287918
1766408805188913700,6.40191357421875,-0.3605250120162964,0.011962499469518661,-0.1266375035047531
1766408805203917300,6.416917236328125,-0.3114374876022339,0.11852499842643738,-0.1331000030040741
1766408805218921500,6.43192138671875,-0.34443750977516174,0.0929500013589859,-0.0798875018954277
1766408805228924000,6.441923828125,-0.37757501006126404,0.0471624992787838,-0.02969999983906746
1766408805238926300,6.45192626953125,-0.40094998478889465,-0.009349999949336052,0.011824999935925007
1766408805248929000,6.461928955078125,-0.40837499499320984,-0.045649997889995575,0.04592499881982803
1766408805278936800,6.491936767578125,-0.29768750071525574,0.06091250106692314,0.15028749406337738
1766408805288939300,6.501939208984375,-0.23691250383853912,0.10353749990463257,0.17476250231266022
1766408805298942000,6.51194189453125,-0.17943750321865082,0.12058749794960022,0.19071249663829803
1766408805308944400,6.5219443359375,-0.15056249499320984,0.11096250265836716,0.18438750505447388
1766408805323948300,6.5369482421875,-0.141075000166893,0.10779999941587448,0.13750000298023224
1766408805333950700,6.54695068359375,-0.15166249871253967,0.12168750166893005,0.0906125009059906
1766408805343953400,6.556953369140625,-0.16871249675750732,0.172837495803833,0.03519999980926514
1766408805353955800,6.566955810546875,-0.18892499804496765,0.23567499220371246,-0.015949999913573265
1766408805363958500,6.57695849609375,-0.2209624946117401,0.2985124886035919,-0.04675000160932541
1766408805378962200,6.591962158203125,-0.2667500078678131,0.45938751101493835,-0.05101250112056732
1766408805388964900,6.60196484375,-0.2741749882698059,0.5956500172615051,-0.04468749836087227
1766408805398967600,6.611967529296875,-0.2741749882698059,0.7011125087738037,-0.05431250110268593
1766408805408970000,6.621969970703125,-0.27211248874664307,0.7459374666213989,-0.08511249721050262
1766408805423974000,6.636973876953125,-0.23471249639987946,0.7512999773025513,-0.17256249487400055
1766408805433976300,6.646976318359375,-0.18369999527931213,0.7320500016212463,-0.24488750100135803
1766408805448980200,6.661980224609375,-0.09955000132322311,0.6117374897003174,-0.32477501034736633
1766408805458983000,6.67198291015625,-0.06751249730587006,0.4923875033855438,-0.33233749866485596
1766408805468985300,6.6819853515625,-0.05156249925494194,0.3507624864578247,-0.30566251277923584
1766408805478987800,6.69198779296875,-0.037675000727176666,0.2186249941587448,-0.25987499952316284
1766408805493991700,6.70699169921875,-0.006737499963492155,0.10889999568462372,-0.18205000460147858
1766408805503994000,6.716994140625,0.037950001657009125,0.07259999960660934,-0.14588749408721924
1766408805513997000,6.7269970703125,0.10395000129938126,0.05884999781847,-0.14272500574588776
1766408805523999500,6.73699951171875,0.17861250042915344,0.07369999587535858,-0.1863124966621399
1766408805534002000,6.747001953125,0.2531374990940094,0.0929500013589859,-0.2428250014781952
1766408805549006000,6.762006103515625,0.353237509727478,0.06627500057220459,-0.21092499792575836
1766408805559008500,6.772008544921875,0.40328750014305115,0.033275000751018524,-0.11178749799728394
1766408805569011000,6.782010986328125,0.4171749949455261,-0.006187499966472387,0.018149999901652336
1766408805584014800,6.797014892578125,0.381012499332428,-0.1307625025510788,0.1896124929189682
1766408805599018800,6.812018798828125,0.3521375060081482,-0.24158750474452972,0.25575000047683716
1766408805614022700,6.827022705078125,0.3543374836444855,-0.3279374837875366,0.227012500166893
1766408805624025000,6.837025146484375,0.3788124918937683,-0.3630000054836273,0.15771250426769257
1766408805639029200,6.852029296875,0.45553749799728394,-0.3513124883174896,0.06929999589920044
1766408805649031700,6.86203173828125,0.520437479019165,-0.2777499854564667,0.04166249930858612
1766408805659034000,6.8720341796875,0.5715875029563904,-0.18191249668598175,0.01924999989569187
1766408805669036800,6.882036865234375,0.5928999781608582,-0.12333749979734421,0.018149999901652336
1766408805679039200,6.892039306640625,0.5876749753952026,-0.12223749607801437,0.05871250107884407
1766408805689041700,6.902041748046875,0.5758500099182129,-0.16596250236034393,0.11824999749660492
1766408805699044400,6.91204443359375,0.5524749755859375,-0.2171124964952469,0.15661250054836273
1766408805709047000,6.922047119140625,0.5066875219345093,-0.2820124924182892,0.15771250426769257
1766408805729052200,6.94205224609375,0.37345001101493835,-0.4226749837398529,0.0906125009059906
1766408805739054600,6.9520546875,0.358599990606308,-0.4141499996185303,0.12044999748468399
1766408805754058200,6.967058349609375,0.35007500648498535,-0.07012499868869781,-0.006324999965727329
1766408805764061000,6.97706103515625,0.31913748383522034,0.0002749999985098839,-0.09583749622106552
1766408805779064800,6.99206494140625,0.32133749127388,-0.1648624986410141,-0.19277499616146088
1766408805789067500,7.002067626953125,0.329862505197525,-0.26606249809265137,-0.20239999890327454
1766408805799070000,7.012070068359375,0.29782500863075256,-0.3151499927043915,-0.14698749780654907
1766408805814073900,7.027073974609375,0.2190375030040741,-0.14685000479221344,-0.02969999983906746
1766408805824076300,7.037076171875,0.12209999561309814,0.006599999964237213,0.033137500286102295
1766408805839080200,7.052080078125,-0.01952499896287918,0.1504250019788742,0.11302500218153
1766408805849083000,7.062082763671875,-0.06544999778270721,0.22714999318122864,0.16307500004768372
1766408805859085300,7.072085205078125,-0.08772499859333038,0.2686749994754791,0.23759999871253967
1766408805869088000,7.082087890625,-0.10051249712705612,0.2367749959230423,0.3515875041484833
1766408805879090400,7.09209033203125,-0.1143999993801117,0.14932499825954437,0.455949991941452
1766408805889093000,7.102093017578125,-0.13571250438690186,0.022549999877810478,0.5252500176429749
1766408805899095800,7.112095703125,-0.15702499449253082,-0.1116499975323677,0.5508249998092651
1766408805909098500,7.122098388671875,-0.16335000097751617,-0.18081249296665192,0.5348749756813049
1766408805919101000,7.132100830078125,-0.14533749222755432,-0.19689999520778656,0.4805625081062317
1766408805929103600,7.142103515625,-0.10903749614953995,-0.19359999895095825,0.39201250672340393
1766408805944107300,7.157107177734375,-0.0387750007212162,-0.16596250236034393,0.23017500340938568
1766408805954110000,7.16710986328125,-0.010037500411272049,-0.14038750529289246,0.14602500200271606
1766408805964112600,7.177112548828125,-0.010999999940395355,-0.15523749589920044,0.10766249895095825
1766408805974115000,7.187114990234375,-0.0611874982714653,-0.2512125074863434,0.1097249984741211
1766408805989119000,7.202118896484375,-0.1985500007867813,-0.4226749837398529,0.14602500200271606
1766408805999121400,7.212121337890625,-0.3082749843597412,-0.5014625191688538,0.16733749210834503
1766408806009124000,7.2221240234375,-0.42336249351501465,-0.5431249737739563,0.20569999516010284
1766408806019126800,7.232126708984375,-0.5351499915122986,-0.5537124872207642,0.27059999108314514
1766408806029129200,7.242129150390625,-0.6342874765396118,-0.5005000233650208,0.35475000739097595
1766408806039132000,7.2521318359375,-0.7110124826431274,-0.34072500467300415,0.41868749260902405
1766408806049134300,7.26213427734375,-0.7375500202178955,-0.08923749625682831,0.4133250117301941
1766408806059136800,7.27213671875,-0.7110124826431274,0.15895000100135803,0.32491248846054077
1766408806069139500,7.282139404296875,-0.6448749899864197,0.31556248664855957,0.18754999339580536
1766408806084143400,7.297143310546875,-0.5245624780654907,0.2877874970436096,0.0042624999769032
1766408806094146000,7.30714599609375,-0.43931248784065247,0.17379999160766602,-0.0648999959230423
1766408806104148500,7.3171484375,-0.369049996137619,0.033275000751018524,-0.0798875018954277
1766408806114151000,7.32715087890625,-0.33274999260902405,-0.08813749998807907,-0.06710000336170197
1766408806129154800,7.34215478515625,-0.3306874930858612,-0.15853749215602875,-0.018012499436736107
1766408806139157500,7.352157470703125,-0.33701249957084656,-0.14685000479221344,0.021312499418854713
1766408806149160200,7.36216015625,-0.3455374836921692,-0.10422500222921371,0.04262499883770943
1766408806164163800,7.377163818359375,-0.37427499890327454,-0.0019249999895691872,0.05444999784231186
1766408806179167700,7.392167724609375,-0.39352500438690186,0.11522500216960907,0.04372499883174896
1766408806189170400,7.40217041015625,-0.383899986743927,0.15895000100135803,0.014987500384449959
1766408806199172900,7.4121728515625,-0.3647874891757965,0.14506250619888306,-0.015949999913573265
1766408806209175600,7.422175537109375,-0.34773749113082886,0.06833750009536743,-0.03506249934434891
1766408806219178000,7.432177978515625,-0.33701249957084656,-0.043449997901916504,-0.04152499884366989
1766408806229180400,7.442180419921875,-0.3359124958515167,-0.15950000286102295,-0.0424874983727932
1766408806239183000,7.45218310546875,-0.3359124958515167,-0.28421249985694885,-0.015949999913573265
1766408806249185800,7.462185791015625,-0.32958748936653137,-0.38967499136924744,0.033137500286102295
1766408806259188500,7.4721884765625,-0.3306874930858612,-0.43546250462532043,0.08208750188350677
1766408806269191000,7.48219091796875,-0.35199999809265137,-0.4450874924659729,0.12361250072717667
1766408806279193300,7.492193359375,-0.3796375095844269,-0.44398748874664307,0.15565000474452972
1766408806289195800,7.50219580078125,-0.40741249918937683,-0.41635000705718994,0.17270000278949738
1766408806304200000,7.517199951171875,-0.45746248960494995,-0.34498751163482666,0.1938749998807907
1766408806319203800,7.532203857421875,-0.5436750054359436,-0.2938374876976013,0.24296249449253082
1766408806329206300,7.542206298828125,-0.604449987411499,-0.24584999680519104,0.27059999108314514
1766408806349211600,7.562211669921875,-0.6672874689102173,-0.1350249946117401,0.29301249980926514
1766408806364215300,7.57721533203125,-0.67044997215271,-0.0625625029206276,0.2642749845981598
1766408806374218000,7.587218017578125,-0.6650875210762024,-0.02213750034570694,0.23223750293254852
1766408806384220700,7.597220703125,-0.6437749862670898,0.02474999986588955,0.2046000063419342
1766408806394223000,7.60722314453125,-0.6012874841690063,0.05238749831914902,0.1779250055551529
1766408806404225800,7.617225830078125,-0.5564625263214111,0.05348749831318855,0.13750000298023224
1766408806434233300,7.6472333984375,-0.43821248412132263,0.16101250052452087,0.07246249914169312
1766408806444236000,7.657236083984375,-0.4179999828338623,0.2441999912261963,0.10023749619722366
1766408806454238700,7.66723876953125,-0.415800005197525,0.31130000948905945,0.15234999358654022
1766408806464241200,7.6772412109375,-0.40521249175071716,0.3932499885559082,0.21518750488758087
1766408806479245000,7.6922451171875,-0.31790000200271606,0.5029749870300293,0.32284998893737793
1766408806489247700,7.702247802734375,-0.23154999315738678,0.5489000082015991,0.3515875041484833
1766408806499250200,7.712250244140625,-0.164450004696846,0.5680124759674072,0.3068999946117401
1766408806509252900,7.7222529296875,-0.12498749792575836,0.5148000121116638,0.17902499437332153
1766408806519255300,7.73225537109375,-0.10903749614953995,0.4124999940395355,0.009624999947845936
1766408806534259200,7.74725927734375,-0.08346249908208847,0.30387499928474426,-0.24062499403953552
1766408806544262000,7.757261962890625,-0.07067500054836273,0.26977500319480896,-0.3684999942779541
1766408806554264600,7.7672646484375,-0.0611874982714653,0.29315000772476196,-0.45691248774528503
1766408806569268200,7.782268310546875,-0.037675000727176666,0.35708749294281006,-0.4643374979496002
1766408806579270700,7.792270751953125,-0.043037500232458115,0.3783999979496002,-0.38981249928474426
1766408806594274600,7.807274658203125,-0.07177499681711197,0.41786250472068787,-0.2652375102043152
1766408806604277000,7.817277099609375,-0.08030000329017639,0.4636499881744385,-0.20336249470710754
1766408806614279700,7.82727978515625,-0.07713750004768372,0.4646124839782715,-0.12773749232292175
1766408806624282400,7.837282470703125,-0.04729999974370003,0.4380750060081482,-0.030799999833106995
1766408806639286300,7.852286376953125,0.037950001657009125,0.24310000240802765,0.11302500218153
1766408806654290000,7.8672900390625,0.060362499207258224,0.014024999924004078,0.10656250268220901
1766408806669293800,7.8822939453125,0.0943249985575676,-0.0849749967455864,-0.055275000631809235
1766408806679296500,7.892296630859375,0.16046249866485596,-0.0966624990105629,-0.20336249470710754
1766408806694300400,7.907300537109375,0.24034999310970306,-0.02433750033378601,-0.45691248774528503
1766408806709304000,7.922303955078125,0.2989250123500824,0.15895000100135803,-0.6061000227928162
1766408806719306800,7.932306640625,0.35007500648498535,0.24736249446868896,-0.6114624738693237
1766408806729309400,7.942309326171875,0.38843750953674316,0.25905001163482666,-0.5410624742507935
1766408806739311900,7.952311767578125,0.4129124879837036,0.2217874974012375,-0.4281750023365021
1766408806749314600,7.962314453125,0.44481250643730164,0.1387374997138977,-0.3312374949455261
1766408806759317000,7.97231689453125,0.4842749834060669,0.05664999783039093,-0.3003000020980835
1766408806769319700,7.982319580078125,0.5066875219345093,-0.0030249999836087227,-0.33550000190734863
1766408806789324800,8.00232470703125,0.5013250112533569,-0.020075000822544098,-0.5432624816894531
1766408806804328700,8.01732861328125,0.5076500177383423,0.09391249716281891,-0.7530875205993652
1766408806819332600,8.03233251953125,0.510949969291687,0.2835249900817871,-0.803137481212616
1766408806829335000,8.0423349609375,0.5172749757766724,0.3815625011920929,-0.6891499757766724
1766408806839337700,8.052337646484375,0.5237374901771545,0.44123750925064087,-0.5037999749183655
1766408806849340400,8.06234033203125,0.5076500177383423,0.4039750099182129,-0.296037495136261
1766408806859342800,8.0723427734375,0.4725874960422516,0.2718375027179718,-0.12031249701976776
1766408806869345500,8.082345458984374,0.4618625044822693,0.20363749563694,-0.03506249934434891
1766408806879348000,8.092347900390624,0.4587000012397766,0.03437500074505806,0.0340999998152256
1766408806889350700,8.1023505859375,0.4405499994754791,-0.18191249668598175,0.07039999961853027
1766408806904354600,8.1173544921875,0.37991249561309814,-0.3609375059604645,-0.0042624999769032
1766408806914357000,8.12735693359375,0.3469125032424927,-0.35983750224113464,-0.09583749622106552
1766408806924359400,8.137359375,0.31171250343322754,-0.3012624979019165,-0.1714625060558319
1766408806939363600,8.152363525390625,0.24461250007152557,-0.15111249685287476,-0.1863124966621399
1766408806949366000,8.162365966796875,0.17957499623298645,-0.04881250113248825,-0.15441249310970306
1766408806959368700,8.17236865234375,0.10395000129938126,0.02474999986588955,-0.1097249984741211
1766408806974372900,8.187372802734375,0.0016499999910593033,0.06517499685287476,-0.030799999833106995
1766408806984375300,8.197375244140625,-0.052662499248981476,0.06201250106096268,0.021312499418854713
1766408806994378000,8.2073779296875,-0.09624999761581421,-0.0030249999836087227,0.07672499865293503
1766408807004380400,8.21738037109375,-0.13571250438690186,-0.10202500224113464,0.14066250622272491
1766408807014383000,8.227383056640624,-0.17943750321865082,-0.19470000267028809,0.20569999516010284
1766408807024385500,8.237385498046875,-0.2241249978542328,-0.2554749846458435,0.25575000047683716
1766408807039389400,8.252389404296874,-0.2624875009059906,-0.320374995470047,0.303600013256073
1766408807049391900,8.262391845703124,-0.25286251306533813,-0.3694624900817871,0.3623124957084656
1766408807064395800,8.277395751953126,-0.19965000450611115,-0.37578749656677246,0.43037500977516174
1766408807074398200,8.287398193359374,-0.1527625024318695,-0.3353624939918518,0.41442498564720154
1766408807084401200,8.297401123046875,-0.10903749614953995,-0.31831249594688416,0.3452624976634979
1766408807099405000,8.312405029296874,-0.08566249907016754,-0.3086875081062317,0.17476250231266022
1766408807109407500,8.322407470703125,-0.10793749988079071,-0.3097875118255615,0.06187500059604645
1766408807119410000,8.332409912109375,-0.15702499449253082,-0.33646249771118164,-0.011687500402331352
1766408807129412600,8.34241259765625,-0.22728750109672546,-0.33316248655319214,-0.08621250092983246
1766408807139415300,8.352415283203126,-0.3125374913215637,-0.3502124845981598,-0.16926249861717224
1766408807149418000,8.36241796875,-0.3988874852657318,-0.3959999978542328,-0.2545124888420105
1766408807164421600,8.377421630859375,-0.5106750130653381,-0.4408249855041504,-0.3716624975204468
1766408807174424300,8.38742431640625,-0.559624969959259,-0.42157500982284546,-0.4355999827384949
1766408807184426800,8.3974267578125,-0.5820375084877014,-0.31088748574256897,-0.4665375053882599
1766408807194429400,8.407429443359375,-0.5724124908447266,-0.10092499852180481,-0.47616249322891235
1766408807209433300,8.422433349609374,-0.5553625226020813,0.20583750307559967,-0.4409624934196472
1766408807219435800,8.432435791015624,-0.5607249736785889,0.27073749899864197,-0.3716624975204468
1766408807229438500,8.4424384765625,-0.5746124982833862,0.18988749384880066,-0.2662000060081482
1766408807239441000,8.45244091796875,-0.5842375159263611,0.014024999924004078,-0.14698749780654907
1766408807249443600,8.462443603515625,-0.5916625261306763,-0.2447499930858612,-0.05953750014305115
1766408807264447500,8.477447509765625,-0.5842375159263611,-0.7060624957084656,0.021312499418854713
1766408807279451400,8.492451416015625,-0.568149983882904,-0.8817874789237976,0.09693749994039536
1766408807289454000,8.5024541015625,-0.5649874806404114,-0.7933750152587891,0.08524999767541885
1766408807299456500,8.51245654296875,-0.5766749978065491,-0.534600019454956,0.014987500384449959
1766408807309459200,8.522459228515626,-0.5735124945640564,-0.21821250021457672,-0.055275000631809235
1766408807319461600,8.532461669921876,-0.5086125135421753,0.04922499880194664,-0.02447500079870224
1766408807329464300,8.54246435546875,-0.3998500108718872,0.33041250705718994,0.06187500059604645
1766408807339467000,8.552467041015625,-0.3381125032901764,0.5264874696731567,0.056512501090765
1766408807349469400,8.562469482421875,-0.29438748955726624,0.3465000092983246,0.05224999785423279
1766408807359472000,8.57247216796875,-0.23471249639987946,0.11948750168085098,0.020349999889731407
1766408807369474600,8.582474609375,-0.18796250224113464,-0.05197500064969063,-0.05637500062584877
1766408807379477200,8.592477294921874,-0.14423750340938568,-0.18507499992847443,-0.15441249310970306
1766408807389479700,8.602479736328124,-0.08992499858140945,-0.2063875049352646,-0.22261250019073486
1766408807399482400,8.612482421875,-0.06861250102519989,-0.18411250412464142,-0.20762500166893005
1766408807409485000,8.622485107421875,-0.05582499876618385,-0.05197500064969063,-0.18424999713897705
1766408807419487500,8.632487548828125,-0.05692499876022339,0.1237500011920929,-0.1746249943971634
1766408807434491400,8.647491455078125,-0.08882500231266022,0.21642500162124634,-0.14588749408721924
1766408807444494000,8.657494140625,-0.11646249890327454,0.18768750131130219,-0.11811249703168869
1766408807454496800,8.667496826171876,-0.142037495970726,0.1504250019788742,-0.08937499672174454
1766408807464499200,8.677499267578124,-0.16335000097751617,0.10353749990463257,-0.040424998849630356
1766408807474502000,8.687501953125,-0.18150000274181366,0.015124999918043613,0.025575000792741776
1766408807494507300,8.70750732421875,-0.16981250047683716,-0.21821250021457672,0.19607499241828918
1766408807504509700,8.717509765625,-0.1368124932050705,-0.319412499666214,0.29411250352859497
1766408807514512100,8.72751220703125,-0.10161250084638596,-0.3843125104904175,0.37716248631477356
1766408807524514800,8.737514892578124,-0.06751249730587006,-0.3811500072479248,0.42721250653266907
1766408807539518700,8.752518798828126,-0.01746249943971634,-0.30662500858306885,0.4624125063419342
1766408807549521400,8.762521484375,0.002749999985098839,-0.2213750034570694,0.4815250039100647
1766408807559523800,8.77252392578125,0.005912499967962503,-0.12017499655485153,0.5081999897956848
1766408807569526500,8.782526611328125,-0.0015124999918043613,-0.027499999850988388,0.5476624965667725
1766408807579529200,8.792529296875,-0.010999999940395355,0.04179999977350235,0.5795624852180481
1766408807589532000,8.802531982421876,-0.020624998956918716,0.09075000137090683,0.6157249808311462
1766408807604535600,8.81753564453125,-0.06641250103712082,0.09075000137090683,0.7041375041007996
1766408807614538000,8.8275380859375,-0.1335124969482422,0.09075000137090683,0.744700014591217
1766408807624540700,8.837540771484376,-0.2124374955892563,0.14300000667572021,0.7489625215530396
1766408807639544600,8.852544677734375,-0.2901250123977661,0.23993749916553497,0.7330124974250793
1766408807649547300,8.86254736328125,-0.30717501044273376,0.32945001125335693,0.6956124901771545
1766408807659549700,8.8725498046875,-0.2923249900341034,0.47533750534057617,0.6296125054359436
1766408807669552400,8.882552490234374,-0.2326499968767166,0.6276875138282776,0.552887499332428
1766408807679555000,8.89255517578125,-0.14313749969005585,0.7246249914169312,0.46873748302459717
1766408807689557800,8.902557861328125,-0.07067500054836273,0.7224249839782715,0.3877499997615814
1766408807699560200,8.912560302734375,-0.0387750007212162,0.6340125203132629,0.3377000093460083
1766408807714564000,8.927564208984375,-0.03451250120997429,0.4017750024795532,0.30153748393058777
1766408807724566500,8.93756640625,-0.045099999755620956,0.2536875009536743,0.2620750069618225
1766408807739570700,8.95257080078125,-0.09418749809265137,0.06201250106096268,0.15991249680519104
1766408807749573000,8.962572998046875,-0.13887499272823334,0.016224998980760574,0.05967500060796738
1766408807759575600,8.972575439453125,-0.15908749401569366,0.002337499987334013,-0.04358749836683273
1766408807769578200,8.982578125,-0.14533749222755432,-0.0030249999836087227,-0.1266375035047531
1766408807784582400,8.99758251953125,-0.12182500213384628,0.05664999783039093,-0.1938749998807907
1766408807794584800,9.007584716796876,-0.09844999760389328,0.12278749793767929,-0.22893749177455902
1766408807814590000,9.02758984375,-0.015262499451637268,0.41029998660087585,-0.3343999981880188
1766408807829594000,9.042593994140624,0.04963750019669533,0.6106374859809875,-0.40369999408721924
1766408807839596500,9.052596435546874,0.0859375,0.6670125126838684,-0.4302375018596649
1766408807849599000,9.062598876953125,0.11357499659061432,0.6532624959945679,-0.4452250003814697
1766408807859601700,9.0726015625,0.12952500581741333,0.5381749868392944,-0.4345000088214874
1766408807869604000,9.08260400390625,0.12636250257492065,0.36024999618530273,-0.38981249928474426
1766408807879606800,9.092606689453126,0.11041250079870224,0.17806249856948853,-0.31638750433921814
1766408807889609500,9.102609375,0.07411249727010727,0.059812501072883606,-0.22151249647140503
1766408807899612200,9.112612060546875,0.025162499397993088,-0.003987499978393316,-0.09267500042915344
1766408807909614600,9.122614501953125,-0.025987500324845314,-0.045649997889995575,0.07466249912977219
1766408807919617000,9.132616943359375,-0.06324999779462814,-0.05939999967813492,0.24928750097751617
1766408807929619700,9.14261962890625,-0.07919999957084656,-0.038087498396635056,0.39957499504089355
1766408807939622400,9.152622314453126,-0.07919999957084656,-0.021037500351667404,0.4996750056743622
1766408807954626300,9.167626220703125,-0.04619999974966049,-0.021037500351667404,0.5326749682426453
1766408807969630000,9.1826298828125,0.037950001657009125,-0.02213750034570694,0.43683749437332153
1766408807979632600,9.192632568359375,0.14767499268054962,0.0012374999932944775,0.3143250048160553
1766408807989634000,9.202634033203125,0.2457125037908554,-0.07108750194311142,0.18754999339580536
1766408808044649700,9.257649658203125,0.4885374903678894,-0.04455000162124634,-0.42281249165534973
1766408808054652200,9.267652099609375,0.47574999928474426,-0.043449997901916504,-0.4047999978065491
1766408808069656000,9.282656005859375,0.4703874886035919,-0.02956249937415123,-0.28228750824928284
1766408808079658800,9.29265869140625,0.4800125062465668,-0.020075000822544098,-0.1938749998807907
1766408808089661400,9.302661376953125,0.47891250252723694,-0.020075000822544098,-0.1266375035047531
1766408808099664000,9.312663818359376,0.4618625044822693,-0.021037500351667404,-0.09047500044107437
1766408808109666300,9.322666259765626,0.43738749623298645,-0.01251249946653843,-0.08621250092983246
1766408808119669000,9.3326689453125,0.4054875075817108,0.0002749999985098839,-0.09157499670982361
1766408808134673200,9.347673095703126,0.358599990606308,0.03959999978542328,-0.08415000140666962
1766408808149676800,9.3626767578125,0.3170749843120575,0.048124998807907104,-0.0424874983727932
1766408808164680700,9.3776806640625,0.25946250557899475,0.048124998807907104,-0.015949999913573265
1766408808174683400,9.387683349609375,0.22756250202655792,0.057750001549720764,0.005362499970942736
1766408808189687300,9.402687255859375,0.2125750035047531,0.1120624989271164,0.047987498342990875
1766408808209692400,9.4226923828125,0.22110000252723694,0.2303124964237213,0.15234999358654022
1766408808219695000,9.432695068359376,0.22220000624656677,0.3016749918460846,0.20996250212192535
1766408808229697500,9.442697509765624,0.22013749182224274,0.39861249923706055,0.2685374915599823
1766408808239700200,9.4527001953125,0.22756250202655792,0.5148000121116638,0.29081249237060547
1766408808249703000,9.462702880859375,0.2381500005722046,0.5711749792098999,0.2653749883174896
1766408808259705300,9.472705322265625,0.2232999950647354,0.5754374861717224,0.20996250212192535
1766408808269707800,9.482707763671876,0.19030000269412994,0.6106374859809875,0.12581250071525574
1766408808279710500,9.49271044921875,0.16362500190734863,0.6595875024795532,0.040562499314546585
1766408808289713200,9.502713134765624,0.13378749787807465,0.6308500170707703,0.0010999999940395355
1766408808304717000,9.517717041015626,0.08689999580383301,0.5253875255584717,0.005362499970942736
1766408808319721000,9.532720947265625,0.024062499403953552,-0.0019249999895691872,0.03203750029206276
1766408808339726000,9.55272607421875,0.02199999988079071,-0.62933748960495,-0.2513499855995178
1766408808349728800,9.562728759765625,0.05609999969601631,-0.6687999963760376,-0.3460874855518341
1766408808359731200,9.572731201171875,0.0859375,-0.6335999965667725,-0.35997501015663147
1766408808369734000,9.58273388671875,0.07315000146627426,-0.5995000004768372,-0.32477501034736633
1766408808379736600,9.592736572265625,0.012374999932944775,-0.5878124833106995,-0.2502500116825104
1766408808389739300,9.6027392578125,-0.0611874982714653,-0.5005000233650208,-0.2172500044107437
1766408808399741700,9.61274169921875,-0.15482500195503235,-0.45045000314712524,-0.23430000245571136
1766408808409744100,9.622744140625,-0.2806375026702881,-0.4300999939441681,-0.2513499855995178
1766408808419746800,9.632746826171875,-0.383899986743927,-0.4567750096321106,-0.22687499225139618
1766408808429749500,9.64274951171875,-0.44247499108314514,-0.49197500944137573,-0.2630375027656555
1766408808439752200,9.652752197265626,-0.4787749946117401,-0.5079249739646912,-0.3536500036716461
1766408808449754600,9.662754638671874,-0.5277249813079834,-0.5121874809265137,-0.4526500105857849
1766408808459757300,9.67275732421875,-0.5638874769210815,-0.4769875109195709,-0.5230500102043152
1766408808469759700,9.682759765625,-0.5692499876022339,-0.4419249892234802,-0.5475249886512756
1766408808479762400,9.692762451171875,-0.5852000117301941,-0.3535124957561493,-0.5208500027656555
1766408808494766300,9.707766357421875,-0.5948249697685242,-0.2149125039577484,-0.3834874927997589
1766408808504769000,9.71776904296875,-0.5905625224113464,-0.1765500009059906,-0.21834999322891235
1766408808519772700,9.732772705078125,-0.604449987411499,-0.30758750438690186,0.10119999945163727
1766408808529775400,9.742775390625,-0.6289250254631042,-0.38747498393058777,0.28654998540878296
1766408808549780700,9.76278076171875,-0.5649874806404114,0.06311249732971191,0.5636125206947327
1766408808559783200,9.772783203125,-0.49156248569488525,0.2868250012397766,0.6744375228881836
1766408808569785600,9.78278564453125,-0.4446749985218048,0.431612491607666,0.7330124974250793
1766408808579788300,9.792788330078125,-0.3903625011444092,0.5489000082015991,0.6829624772071838
1766408808589791000,9.802791015625,-0.36258751153945923,0.5711749792098999,0.5689749717712402
1766408808604795000,9.817794921875,-0.4265249967575073,0.1621125042438507,0.35694998502731323
1766408808619798800,9.832798828125,-0.6278250217437744,-0.4334000051021576,0.13007499277591705
1766408808629801500,9.842801513671875,-0.7184374928474426,-0.7464874982833862,-0.021175000816583633
1766408808639804200,9.85280419921875,-0.7301250100135803,-1.0139249563217163,-0.15867500007152557
1766408808649806600,9.862806640625,-0.6683874726295471,-0.9542499780654907,-0.30140000581741333
1766408808659809300,9.872809326171875,-0.33274999260902405,-0.7603750228881836,-0.5069624781608582
1766408808669811700,9.882811767578126,-0.03231250122189522,-0.4877125024795532,-0.5304750204086304
1766408808679814400,9.892814453125,0.024062499403953552,-0.32999998331069946,-0.3909125030040741
1766408808689817000,9.902817138671875,-0.10271249711513519,-0.43546250462532043,-0.2087250053882599
1766408808699819500,9.912819580078125,-0.29864999651908875,-0.42803749442100525,-0.07232499867677689
1766408808714823700,9.92782373046875,-0.3221625089645386,-0.12759999930858612,-0.027637500315904617
1766408808724826000,9.937826171875,-0.2059749960899353,-0.24901250004768372,-0.13420000672340393
1766408808739830000,9.952830078125,-0.2784374952316284,-0.2586374878883362,-0.2055625021457672
1766408808754834000,9.967833984375,-0.30621248483657837,-0.2810499966144562,-0.18205000460147858
1766408808774839300,9.98783935546875,-0.2849000096321106,-0.08387500047683716,-0.14588749408721924
1766408808784841700,9.997841796875,-0.26881250739097595,0.02474999986588955,-0.1331000030040741
1766408808799846000,10.012845947265625,-0.24433749914169312,0.15358750522136688,-0.13626250624656677
1766408808819851000,10.03285107421875,-0.28696250915527344,-0.0317624993622303,-0.14368750154972076
1766408808839856000,10.052856201171876,-0.30937498807907104,-0.23732499778270721,-0.055275000631809235
1766408808854860000,10.067860107421875,-0.2624875009059906,-0.19359999895095825,0.06613750010728836
1766408808869864000,10.082864013671875,-0.20817500352859497,-0.04455000162124634,0.11728750169277191
1766408808884867800,10.097867919921875,-0.20707499980926514,0.09075000137090683,0.14918750524520874
1766408808934880800,10.147880859375,-0.4137375056743622,0.20157499611377716,0.29411250352859497
1766408808944883200,10.15788330078125,-0.4787749946117401,0.3889875113964081,0.25891250371932983
1766408808954886100,10.16788623046875,-0.5394124984741211,0.5040749907493591,0.1886499971151352
1766408808964888600,10.177888671875,-0.5288249850273132,0.33041250705718994,0.1363999992609024
1766408808994896400,10.207896484375,-0.4499000012874603,0.20363749563694,-0.16073749959468842
1766408809014901800,10.22790185546875,-0.4606249928474426,0.04606249928474426,-0.304562509059906
1766408809029905400,10.242905517578125,-0.4776749908924103,0.05458749830722809,-0.28228750824928284
1766408809044909300,10.257909423828124,-0.4296875,0.21119999885559082,-0.18205000460147858
1766408809054912000,10.267912109375,-0.38183748722076416,0.30277499556541443,-0.11715000122785568
1766408809064914700,10.277914794921875,-0.3392125070095062,0.39434999227523804,-0.08304999768733978
1766408809089921000,10.302921142578125,-0.2358125001192093,0.5531625151634216,-0.0009624999947845936
1766408809104925200,10.31792529296875,-0.170912504196167,0.6265875101089478,0.09913749992847443
1766408809119929000,10.33292919921875,-0.11756250262260437,0.6415749788284302,0.1363999992609024
1766408809139934200,10.352934326171875,-0.05582499876618385,0.6095374822616577,0.013887500390410423
1766408809159939300,10.372939208984375,0.03904999792575836,0.513700008392334,-0.22577500343322754
1766408809169942000,10.38294189453125,0.026262499392032623,0.4465999901294708,-0.304562509059906
1766408809179944700,10.39294482421875,-0.010999999940395355,0.34113749861717224,-0.34402498602867126
1766408809194948600,10.407948486328126,-0.040837500244379044,0.10779999941587448,-0.31638750433921814
1766408809219955000,10.432954833984375,-0.022824998944997787,-0.17448750138282776,-0.055275000631809235
1766408809234958800,10.447958740234375,0.020899999886751175,-0.08813749998807907,0.2227499932050705
1766408809249963000,10.462962890625,0.12416250258684158,0.14190000295639038,0.4422000050544739
1766408809264966700,10.477966552734374,0.21793749928474426,0.2377374917268753,0.45925000309944153
1766408809279970600,10.492970458984376,0.29260000586509705,0.23251250386238098,0.3515875041484833
1766408809289973200,10.50297314453125,0.3170749843120575,0.21119999885559082,0.2620750069618225
1766408809299976000,10.512975830078124,0.33192500472068787,0.18658749759197235,0.16733749210834503
1766408809314979800,10.527979736328126,0.33934998512268066,0.10147500038146973,-0.04675000160932541
1766408809324982300,10.537982177734374,0.33412501215934753,0.013062499463558197,-0.21518750488758087
1766408809334985000,10.54798486328125,0.32339999079704285,-0.05829999968409538,-0.3482874929904938
1766408809344987600,10.557987548828125,0.31171250343322754,-0.06902500241994858,-0.4218499958515167
1766408809359991600,10.572991455078125,0.2722499966621399,-0.028599999845027924,-0.4175874888896942
1766408809369994200,10.582994140625,0.23608750104904175,-0.028599999845027924,-0.38128748536109924
1766408809379997000,10.592996826171875,0.21587499976158142,-0.05087500065565109,-0.3653374910354614
1766408809389999600,10.60299951171875,0.2125750035047531,-0.13296249508857727,-0.3759250044822693
1766408809405003300,10.618003173828125,0.22756250202655792,-0.37894999980926514,-0.4133250117301941
1766408809415006000,10.628005859375,0.2457125037908554,-0.5196124911308289,-0.42707499861717224
1766408809430010000,10.643010009765625,0.25093749165534973,-0.5846499800682068,-0.3493874967098236
1766408809440012500,10.653012451171875,0.2381500005722046,-0.5909749865531921,-0.25244998931884766
1766408809450015200,10.66301513671875,0.22536249458789825,-0.5685625076293945,-0.16183750331401825
1766408809460017700,10.673017578125,0.23718750476837158,-0.5142499804496765,-0.10216250270605087
1766408809470020400,10.683020263671875,0.23608750104904175,-0.41304999589920044,-0.05637500062584877
1766408809480023000,10.69302294921875,0.19882500171661377,-0.3279374837875366,-0.038224998861551285
1766408809490025700,10.703025634765625,0.17104999721050262,-0.2628999948501587,-0.06916250288486481
1766408809500028200,10.713028076171875,0.1625249981880188,-0.21175000071525574,-0.13626250624656677
1766408809510030800,10.72303076171875,0.15729999542236328,-0.18617500364780426,-0.19593749940395355
1766408809520033500,10.733033447265624,0.15619999170303345,-0.19689999520778656,-0.2311374992132187
1766408809535037400,10.748037353515626,0.14547500014305115,-0.16596250236034393,-0.22687499225139618
1766408809545040100,10.7580400390625,0.13062499463558197,-0.12333749979734421,-0.1896124929189682
1766408809555042600,10.76804248046875,0.12416250258684158,-0.08813749998807907,-0.14162500202655792
1766408809565045200,10.778045166015625,0.13062499463558197,-0.04455000162124634,-0.09047500044107437
1766408809580049200,10.793049072265624,0.15729999542236328,0.07590000331401825,0
1766408809590051800,10.8030517578125,0.1658249944448471,0.17489999532699585,0.0672374963760376
1766408809600054500,10.813054443359375,0.15399999916553497,0.22605000436306,0.13007499277591705
1766408809610057200,10.82305712890625,0.12636250257492065,0.16431249678134918,0.13750000298023224
1766408809630062300,10.843062255859374,0.1050499975681305,-0.08181250095367432,-0.005224999971687794
1766408809640064800,10.853064697265625,0.11041250079870224,-0.18507499992847443,-0.04152499884366989
1766408809655068700,10.868068603515624,0.10395000129938126,-0.24268749356269836,-0.021175000816583633
1766408809665071400,10.8780712890625,0.10188750177621841,-0.1765500009059906,0.07466249912977219
1766408809675074000,10.888073974609375,0.11357499659061432,-0.0625625029206276,0.21738749742507935
1766408809685076700,10.89807666015625,0.1326874941587448,0.05884999781847,0.35475000739097595
1766408809695079200,10.9080791015625,0.14024999737739563,0.22605000436306,0.4666749835014343
1766408809705081900,10.918081787109376,0.1615625023841858,0.39434999227523804,0.5647125244140625
1766408809715084300,10.928084228515624,0.17104999721050262,0.5179625153541565,0.6520249843597412
1766408809725087200,10.938087158203125,0.1391499936580658,0.5956500172615051,0.699874997138977
1766408809735089700,10.948089599609375,0.09226249903440475,0.5796999931335449,0.691349983215332
1766408809745092400,10.95809228515625,0.03258749842643738,0.5446375012397766,0.6307125091552734
1766408809760096300,10.97309619140625,-0.06971249729394913,0.37619999051094055,0.5454624891281128
1766408809775100200,10.98810009765625,-0.201712504029274,0.2985124886035919,0.6477624773979187
1766408809795105500,11.00810546875,-0.23691250383853912,0.06943749636411667,0.7489625215530396
1766408809805108200,11.018108154296876,-0.19318750500679016,0.050324998795986176,0.6551874876022339
1766408809815110700,11.028110595703126,-0.17613749206066132,-0.032862499356269836,0.5059999823570251
1766408809835116000,11.048115966796875,-0.406312495470047,-0.2671625018119812,0.28558748960494995
1766408809845118700,11.05811865234375,-0.43505001068115234,-0.30236250162124634,0.227974995970726
1766408809860122600,11.07312255859375,-0.29122498631477356,-0.16596250236034393,0.2620750069618225
1766408809870125300,11.083125244140625,-0.18150000274181366,-0.09569999575614929,0.24502499401569366
1766408809880128000,11.0931279296875,-0.10051249712705612,-0.12443749606609344,0.20350000262260437
1766408809890130400,11.10313037109375,-0.007837500423192978,-0.2639999985694885,0.16733749210834503
1766408809900133400,11.11313330078125,0.08483749628067017,-0.334262490272522,0.10546249896287918
1766408809910135800,11.1231357421875,0.14657500386238098,-0.40562498569488525,0.02461249940097332
1766408809920138500,11.133138427734375,0.16046249866485596,-0.4109874963760376,-0.057475000619888306
1766408809930141200,11.14314111328125,0.14231249690055847,-0.357637494802475,-0.1331000030040741
1766408809940143900,11.153143798828125,0.0943249985575676,-0.3097875118255615,-0.20762500166893005
1766408809950146600,11.163146484375,0.029424998909235,-0.3353624939918518,-0.2737624943256378
1766408809965150500,11.178150390625,-0.07603749632835388,-0.4450874924659729,-0.35887500643730164
1766408809980154600,11.193154541015625,-0.13461250066757202,-0.5420249700546265,-0.4068624973297119
1766408809990157000,11.203156982421875,-0.14423750340938568,-0.5238749980926514,-0.3983374834060669
1766408810000159700,11.21315966796875,-0.12498749792575836,-0.4482499957084656,-0.3343999981880188
1766408810010162400,11.223162353515624,-0.12828749418258667,-0.3129499852657318,-0.2087250053882599
1766408810020165000,11.2331650390625,-0.16664999723434448,-0.12553749978542328,-0.03726249933242798
1766408810030167800,11.243167724609375,-0.2134000062942505,0.057750001549720764,0.13859999179840088
1766408810040170200,11.253170166015625,-0.25286251306533813,0.1695374995470047,0.3004375100135803
1766408810050173200,11.263173095703126,-0.28380000591278076,0.20583750307559967,0.43367499113082886
1766408810065177000,11.278177001953125,-0.29768750071525574,0.19415000081062317,0.5209875106811523
1766408810080181000,11.293180908203125,-0.27101248502731323,0.12278749793767929,0.45704999566078186
1766408810095185200,11.30818505859375,-0.21876250207424164,-0.010449999943375587,0.32284998893737793
1766408810105187600,11.3181875,-0.19002500176429749,-0.08923749625682831,0.21738749742507935
1766408810115190300,11.328190185546875,-0.16871249675750732,-0.12333749979734421,0.13433749973773956
1766408810125192700,11.338192626953125,-0.15386250615119934,-0.1073874980211258,0.07672499865293503
1766408810135195600,11.348195556640626,-0.142037495970726,-0.0625625029206276,0.0448249988257885
1766408810150199600,11.363199462890625,-0.12182500213384628,0.021587500348687172,0.02241249941289425
1766408810160202200,11.3732021484375,-0.10161250084638596,0.06091250106692314,0.006462499964982271
1766408810170205000,11.383204833984376,-0.07713750004768372,0.07906249910593033,-0.021175000816583633
1766408810180207600,11.39320751953125,-0.04413750022649765,0.07369999587535858,-0.07452499866485596
1766408810190210300,11.403210205078125,-0.008937500417232513,0.04386249929666519,-0.1447875052690506
1766408810200212700,11.413212646484375,0.018699999898672104,0.002337499987334013,-0.23539999127388
1766408810215217000,11.428216796875,0.025162499397993088,-0.01677500084042549,-0.40149998664855957
1766408810230220800,11.443220703125,-0.006737499963492155,0.03753750026226044,-0.5399624705314636
1766408810240223500,11.453223388671875,-0.043037500232458115,0.1046374961733818,-0.5762624740600586
1766408810250226200,11.46322607421875,-0.08249999582767487,0.1685750037431717,-0.5410624742507935
1766408810260228900,11.473228759765625,-0.11646249890327454,0.20157499611377716,-0.4452250003814697
1766408810270231600,11.4832314453125,-0.1335124969482422,0.21642500162124634,-0.33550000190734863
1766408810280234000,11.49323388671875,-0.141075000166893,0.19731250405311584,-0.25244998931884766
1766408810290237000,11.50323681640625,-0.142037495970726,0.15358750522136688,-0.2172500044107437
1766408810300239600,11.513239501953125,-0.13144999742507935,0.10037499666213989,-0.20666250586509705
1766408810310242000,11.523241943359375,-0.10477499663829803,0.050324998795986176,-0.21615000069141388
1766408810325246000,11.538245849609375,-0.0845625028014183,-0.0775500014424324,-0.22783750295639038
1766408810335249000,11.548248779296875,-0.10051249712705612,-0.14781250059604645,-0.20019999146461487
1766408810350252800,11.563252685546875,-0.14959999918937683,-0.2106499969959259,-0.1214125007390976
1766408810360255200,11.573255126953125,-0.18892499804496765,-0.21175000071525574,-0.057475000619888306
1766408810370258200,11.583258056640625,-0.201712504029274,-0.17022499442100525,-0.0085249999538064
1766408810380260900,11.5932607421875,-0.1825999915599823,-0.17132499814033508,-0.006324999965727329
1766408810395264800,11.6082646484375,-0.12402500212192535,-0.24268749356269836,-0.03616249933838844
1766408810405267500,11.618267333984376,-0.07919999957084656,-0.3279374837875366,-0.07136250287294388
1766408810415270100,11.628270263671874,-0.037675000727176666,-0.38651248812675476,-0.08511249721050262
1766408810425272800,11.63827294921875,-0.007837500423192978,-0.4067249894142151,-0.07232499867677689
1766408810435275500,11.648275634765625,0.025162499397993088,-0.3268375098705292,-0.038224998861551285
1766408810445278200,11.6582783203125,0.07204999774694443,-0.1755875051021576,-0.010587500408291817
1766408810455281000,11.668281005859376,0.14877499639987946,-0.007287499960511923,-0.026537500321865082
1766408810465283600,11.67828369140625,0.25519999861717224,0.15358750522136688,-0.09047500044107437
1766408810480287500,11.69328759765625,0.4171749949455261,0.30277499556541443,-0.272662490606308
1766408810490290000,11.7032900390625,0.4736874997615814,0.37193748354911804,-0.39943748712539673
1766408810500292900,11.71329296875,0.4703874886035919,0.4071374833583832,-0.4867500066757202
1766408810510295600,11.723295654296875,0.3969624936580658,0.39118748903274536,-0.5006374716758728
1766408810520298000,11.733298095703125,0.26592499017715454,0.3389374911785126,-0.44728749990463257
1766408810535302100,11.74830224609375,0.022962499409914017,0.21752500534057617,-0.2737624943256378
1766408810545304800,11.758304931640625,-0.13997499644756317,0.14506250619888306,-0.13420000672340393
1766408810555307500,11.7683076171875,-0.2934249937534332,0.08758749812841415,0.0010999999940395355
1766408810570311400,11.7833115234375,-0.5522000193595886,-0.045649997889995575,0.17902499437332153
1766408810580314000,11.793314208984375,-0.6224625110626221,-0.057337500154972076,0.295074999332428
1766408810595318300,11.808318359375,-0.4712125062942505,0.12058749794960022,0.4431625008583069
1766408810605320700,11.81832080078125,-0.3392125070095062,0.18768750131130219,0.507099986076355
1766408810615323400,11.828323486328125,-0.2593249976634979,0.22288750112056732,0.5230500102043152
1766408810625326000,11.838326171875,-0.2059749960899353,0.3431999981403351,0.5028374791145325
1766408810640330200,11.853330322265625,-0.11123749613761902,0.5563250184059143,0.3825249969959259
1766408810650333000,11.8633330078125,-0.08249999582767487,0.7394750118255615,0.295074999332428
1766408810660335600,11.873335693359374,-0.062150001525878906,0.8300874829292297,0.1896124929189682
1766408810675339500,11.888339599609376,-0.07177499681711197,0.9120374917984009,0.02461249940097332
1766408810685342200,11.89834228515625,-0.07177499681711197,0.9035124778747559,-0.0798875018954277
1766408810700346400,11.913346435546876,-0.01952499896287918,0.7661499977111816,-0.21408750116825104
1766408810710349000,11.92334912109375,0.037950001657009125,0.6393749713897705,-0.25987499952316284
1766408810725353000,11.93835302734375,0.09116250276565552,0.3240875005722046,-0.23003749549388885
1766408810740357000,11.953357177734375,0.0943249985575676,0.06833750009536743,-0.08841250091791153
1766408810755361000,11.968361083984375,0.08483749628067017,0.16747500002384186,0.13007499277591705
1766408810770365000,11.983364990234374,0.09226249903440475,0.5179625153541565,0.37400001287460327
1766408810790370600,12.00337060546875,0.009212499484419823,0.8971874713897705,0.7052375078201294
1766408810800373000,12.013373046875,0.029424998909235,0.9833999872207642,0.7893875241279602
1766408810810375700,12.023375732421876,0.12526249885559082,0.9653875231742859,0.7851250171661377
1766408810825379800,12.0383798828125,0.28613749146461487,0.7672500014305115,0.645562469959259
1766408810840383700,12.0533837890625,0.39476248621940613,0.45608749985694885,0.36121249198913574
1766408810850386400,12.063386474609375,0.4342249929904938,0.29534998536109924,0.11618749797344208
1766408810860389400,12.073389404296876,0.4470124840736389,0.17379999160766602,-0.12347500026226044
1766408810875393300,12.088393310546875,0.4160749912261963,0.07369999587535858,-0.3844499886035919
1766408810890397200,12.103397216796875,0.37248748540878296,0.08538749814033508,-0.4643374979496002
1766408810900400000,12.113400146484375,0.3372874855995178,0.16005000472068787,-0.40149998664855957
1766408810915404000,12.128404052734375,0.30002498626708984,0.22068749368190765,-0.17572499811649323
1766408810925406700,12.13840673828125,0.2915000021457672,0.2217874974012375,-0.0085249999538064
1766408810935409400,12.148409423828125,0.2872374951839447,0.2367749959230423,0.10546249896287918
1766408810950413300,12.163413330078125,0.27761250734329224,0.26647499203681946,0.15991249680519104
1766408810960416000,12.173416015625,0.2690874934196472,0.27403751015663147,0.1480875015258789
1766408810970419000,12.1834189453125,0.25519999861717224,0.28146249055862427,0.12787500023841858
1766408810980421400,12.19342138671875,0.23608750104904175,0.29205000400543213,0.12251249700784683
1766408810990424000,12.203424072265625,0.22013749182224274,0.30387499928474426,0.1438249945640564
1766408811000427000,12.213427001953125,0.2116124927997589,0.3176249861717224,0.18328750133514404
1766408811010429400,12.223429443359375,0.2083124965429306,0.33467498421669006,0.21312500536441803
1766408811025433600,12.23843359375,0.21367499232292175,0.28036248683929443,0.19181250035762787
1766408811035436300,12.248436279296875,0.2264624983072281,0.18562500178813934,0.1321374922990799
1766408811045439000,12.25843896484375,0.2307250052690506,0.09611249715089798,0.04908749833703041
1766408811055441700,12.268441650390624,0.2147749960422516,-0.008249999955296516,-0.023375000804662704
1766408811065444400,12.2784443359375,0.18713749945163727,-0.11797499656677246,-0.06063750013709068
1766408811075446800,12.28844677734375,0.14877499639987946,-0.16802500188350677,-0.0765874981880188
1766408811090451000,12.303450927734374,0.09019999951124191,-0.1691250056028366,-0.05431250110268593
1766408811100453600,12.31345361328125,0.05926249921321869,-0.17874999344348907,-0.040424998849630356
1766408811115457800,12.328457763671874,-0.006737499963492155,-0.19043749570846558,-0.032999999821186066
1766408811125460500,12.33846044921875,-0.040837500244379044,-0.22990000247955322,-0.01691249944269657
1766408811135463200,12.348463134765625,-0.052662499248981476,-0.2554749846458435,0
1766408811145465600,12.358465576171875,-0.045099999755620956,-0.27348750829696655,0.014987500384449959
1766408811160469800,12.3734697265625,-0.010037500411272049,-0.3438875079154968,0.08744999766349792
1766408811170472400,12.383472412109375,0.07315000146627426,0.17379999160766602,-0.05431250110268593
1766408811180475100,12.39347509765625,0.11041250079870224,-0.08717499673366547,-0.07026249915361404
1766408811190477800,12.403477783203124,0.0976250022649765,-0.34498751163482666,-0.08084999769926071
1766408811200480500,12.41348046875,0.07095000147819519,-0.5931749939918518,-0.10862500220537186
1766408811210483200,12.423483154296875,0.026262499392032623,-0.7859500050544739,-0.06916250288486481
1766408811220486000,12.43348583984375,0.00494999997317791,-0.9212499856948853,-0.011687500402331352
1766408811230488800,12.44348876953125,-0.013199999928474426,-1.0554499626159668,0.03629999980330467
1766408811245492700,12.45849267578125,-0.07177499681711197,-0.9957749843597412,0.011824999935925007
1766408811260496600,12.47349658203125,-0.08249999582767487,-0.7603750228881836,-0.08511249721050262
1766408811270499600,12.48349951171875,-0.06641250103712082,-0.6176499724388123,-0.1629374921321869
1766408811285503500,12.49850341796875,-0.062150001525878906,-0.5559124946594238,-0.2843500077724457
1766408811300507400,12.51350732421875,-0.06971249729394913,-0.6282374858856201,-0.39201250672340393
1766408811315511600,12.528511474609376,-0.09735000133514404,-0.7837499976158142,-0.5059999823570251
1766408811330515700,12.543515625,-0.14533749222755432,-0.9201499819755554,-0.6146249771118164
1766408811340518400,12.553518310546876,-0.15166249871253967,-0.9553499817848206,-0.6870874762535095
1766408811350521000,12.56352099609375,-0.14630000293254852,-0.941462516784668,-0.7605124711990356
1766408811365525000,12.57852490234375,-0.13571250438690186,-0.8391624689102173,-0.8585500121116638
1766408811380529200,12.593529052734375,-0.06324999779462814,-0.6847500205039978,-0.8670749664306641
1766408811390531600,12.603531494140626,0.0006874999962747097,-0.5676000118255615,-0.782925009727478
1766408811400534300,12.6135341796875,0.04427500069141388,-0.4769875109195709,-0.6242499947547913
1766408811410537000,12.623536865234374,0.05073750019073486,-0.4376625120639801,-0.40149998664855957
1766408811420539600,12.63353955078125,0.0006874999962747097,-0.4482499957084656,-0.14904999732971191
1766408811435543800,12.648543701171874,-0.11866249889135361,-0.4067249894142151,0.19071249663829803
1766408811445546200,12.658546142578125,-0.19222499430179596,-0.3161124885082245,0.3345375061035156
1766408811455549200,12.668549072265625,-0.26138749718666077,-0.2149125039577484,0.3750999867916107
1766408811465552000,12.6785517578125,-0.3156999945640564,-0.1414874941110611,0.32711249589920044
1766408811475554600,12.688554443359376,-0.33274999260902405,-0.12017499655485153,0.2120250016450882
1766408811490558500,12.703558349609375,-0.27211248874664307,-0.17132499814033508,-0.04675000160932541
1766408811500561400,12.7135615234375,-0.19744999706745148,-0.2032250016927719,-0.1746249943971634
1766408811510563800,12.723563720703124,-0.11219999939203262,-0.20858749747276306,-0.21834999322891235
1766408811520566500,12.73356640625,-0.028049999848008156,-0.18837499618530273,-0.20666250586509705
1766408811535570400,12.7485703125,0.060362499207258224,-0.08717499673366547,-0.1564749926328659
1766408811545573400,12.758573486328125,0.08689999580383301,-0.03712499886751175,-0.12993749976158142
1766408811555575800,12.768575927734375,0.09858749806880951,-0.020075000822544098,-0.11811249703168869
1766408811565578800,12.778578857421875,0.1050499975681305,-0.0317624993622303,-0.1214125007390976
1766408811575581200,12.788581298828126,0.10284999758005142,-0.04455000162124634,-0.12457499653100967
1766408811585584000,12.798584228515624,0.1050499975681305,-0.05403750017285347,-0.12031249701976776
1766408811595586600,12.808586669921874,0.11247500032186508,-0.05087500065565109,-0.10546249896287918
1766408811605589500,12.818589599609375,0.11990000307559967,-0.018975000828504562,-0.07136250287294388
1766408811615592200,12.82859228515625,0.11990000307559967,0.029012499377131462,-0.026537500321865082
1766408811625595000,12.838594970703125,0.12526249885559082,0.09611249715089798,0.020349999889731407
1766408811635597600,12.84859765625,0.13378749787807465,0.17916250228881836,0.0672374963760376
1766408811645600300,12.858600341796874,0.13805000483989716,0.2516250014305115,0.1097249984741211
1766408811655603000,12.86860302734375,0.13598750531673431,0.3059374988079071,0.13956250250339508
1766408811665605600,12.878605712890625,0.13378749787807465,0.3676750063896179,0.1588124930858612
1766408811675608300,12.8886083984375,0.12416250258684158,0.408237487077713,0.2227499932050705
1766408811685611000,12.898611083984376,0.07631249725818634,0.47423750162124634,0.4996750056743622
1766408811700615200,12.913615234375,0.07837499678134918,0.6606875061988831,0.2887499928474426
1766408811710617900,12.923617919921876,0.045375000685453415,0.19085000455379486,-0.02447500079870224
1766408811720620500,12.93362060546875,0.05816249921917915,-0.24268749356269836,-0.3429250121116638
1766408811735624400,12.94862451171875,0.0826374962925911,-0.4109874963760376,-0.5048999786376953
1766408811745627100,12.958627197265624,0.08057499676942825,-0.319412499666214,-0.43876248598098755
1766408811755629800,12.9686298828125,0.06132499873638153,-0.17448750138282776,-0.3195500075817108
1766408811770633700,12.9836337890625,0.018699999898672104,0.04922499880194664,-0.14698749780654907
1766408811785638000,12.998637939453126,-0.0035749999806284904,0.05555000156164169,-0.07136250287294388
1766408811795640600,13.008640625,0.007012499962002039,-0.1116499975323677,-0.04358749836683273
1766408811805643300,13.018643310546874,0.062424998730421066,-0.35241249203681946,-0.020212499424815178
1766408811815646000,13.02864599609375,0.1274625062942505,-0.5526124835014343,0.0010999999940395355
1766408811830650000,13.043650146484374,0.18067499995231628,-0.720912516117096,0.04372499883174896
1766408811840652500,13.053652587890625,0.17957499623298645,-0.7284749746322632,0.0906125009059906
1766408811850655500,13.063655517578125,0.16472500562667847,-0.6580749750137329,0.1428624987602234
1766408811860658000,13.073657958984375,0.14451250433921814,-0.534600019454956,0.18438750505447388
1766408811870660900,13.083660888671876,0.11467500030994415,-0.35667499899864197,0.21312500536441803
1766408811880663300,13.093663330078124,0.08910000324249268,-0.12553749978542328,0.21422499418258667
1766408811890666000,13.103666015625,0.08057499676942825,0.11096250265836716,0.1896124929189682
1766408811900668700,13.113668701171875,0.08167500048875809,0.3123999834060669,0.1438249945640564
1766408811910671400,13.12367138671875,0.08689999580383301,0.42844998836517334,0.10339999943971634
1766408811920674000,13.133674072265626,0.0943249985575676,0.467912495136261,0.08002500236034393
1766408811930676700,13.1436767578125,0.10395000129938126,0.4657124876976013,0.07150000333786011
1766408811940679400,13.153679443359374,0.10821250081062317,0.4571875035762787,0.05967500060796738
1766408811950682000,13.16368212890625,0.11041250079870224,0.46681249141693115,0.05115000158548355
1766408811960684800,13.173684814453125,0.1093124970793724,0.47533750534057617,0.057612501084804535
1766408811970687500,13.1836875,0.10284999758005142,0.45608749985694885,0.08635000139474869
1766408811980690200,13.193690185546876,0.07741250097751617,0.467912495136261,0.12251249700784683
1766408811995694000,13.208694091796875,0.024062499403953552,0.5807999968528748,0.1545500010251999
1766408812010698200,13.2236982421875,-0.013199999928474426,0.7970874905586243,0.1588124930858612
1766408812020701000,13.233700927734375,-0.028049999848008156,0.9142374992370605,0.1545500010251999
1766408812030703600,13.24370361328125,-0.03657500073313713,0.9919250011444092,0.14176249504089355
1766408812040706300,13.253706298828124,-0.0611874982714653,0.9983875155448914,0.12155000120401382
1766408812055710200,13.268710205078126,-0.045099999755620956,1.0537999868392944,0.04688749834895134
1766408812065713000,13.278712890625,-0.0015124999918043613,1.0973875522613525,-0.05431250110268593
1766408812075715600,13.288715576171874,0.05926249921321869,1.1081124544143677,-0.19483749568462372
1766408812085718300,13.29871826171875,0.10395000129938126,1.003749966621399,-0.3525499999523163
1766408812100722400,13.313722412109374,0.09019999951124191,0.6627500057220459,-0.5964750051498413
1766408812110725000,13.32372509765625,0.06462500244379044,0.3880249857902527,-0.729574978351593
1766408812120727600,13.3337275390625,0.06778749823570251,0.0705375000834465,-0.7999749779701233
1766408812130730500,13.34373046875,0.0976250022649765,-0.21175000071525574,-0.7669749855995178
1766408812140733000,13.35373291015625,0.11893749982118607,-0.3236750066280365,-0.5847874879837036
1766408812150736000,13.36373583984375,0.15193749964237213,-0.42157500982284546,-0.30140000581741333
1766408812160738300,13.37373828125,0.1658249944448471,-0.4684624969959259,0.023512499406933784
1766408812170741000,13.383740966796875,0.1658249944448471,-0.35557499527931213,0.3409999907016754
1766408812180743700,13.39374365234375,0.19139999151229858,-0.17874999344348907,0.6199874877929688
1766408812190746600,13.40374658203125,0.2531374990940094,-0.017875000834465027,0.8149625062942505
1766408812200749000,13.4137490234375,0.32133749127388,0.13021250069141388,0.8885250091552734
1766408812210751700,13.423751708984375,0.3702875077724457,0.26551249623298645,0.855525016784668
1766408812220754400,13.43375439453125,0.39806249737739563,0.3539249897003174,0.7467625141143799
1766408812230757000,13.443757080078125,0.42143750190734863,0.4008125066757202,0.5827249884605408
1766408812240759800,13.453759765625,0.44165000319480896,0.4358749985694885,0.38032498955726624
1766408812255763700,13.468763671875,0.43738749623298645,0.48276248574256897,0.04688749834895134
1766408812265766700,13.4787666015625,0.42253750562667847,0.46997499465942383,-0.16499999165534973
1766408812280770600,13.4937705078125,0.4171749949455261,0.4188250005245209,-0.4281750023365021
1766408812290773200,13.503773193359375,0.42570000886917114,0.3815625011920929,-0.5805249810218811
1766408812300776000,13.51377587890625,0.41923749446868896,0.3507624864578247,-0.692312479019165
1766408812310778600,13.523778564453124,0.4054875075817108,0.33041250705718994,-0.7434625029563904
1766408812320781300,13.53378125,0.40012499690055847,0.28146249055862427,-0.7050999999046326
1766408812330784000,13.543783935546875,0.3937999904155731,0.2217874974012375,-0.5751624703407288
1766408812340786700,13.55378662109375,0.3895374834537506,0.15895000100135803,-0.3866499960422516
1766408812350789400,13.563789306640626,0.3852750062942505,0.1270499974489212,-0.19167499244213104
1766408812360792000,13.5737919921875,0.3713875114917755,0.12278749793767929,-0.038224998861551285
1766408812370794800,13.583794677734375,0.3436124920845032,0.11316250264644623,0.057612501084804535
1766408812380797400,13.59379736328125,0.3128125071525574,0.13021250069141388,0.10449999570846558
1766408812390800100,13.603800048828125,0.2765125036239624,0.12168750166893005,0.11082500219345093
1766408812400802600,13.613802490234375,0.2414499968290329,0.11742500215768814,0.08744999766349792
1766408812415806700,13.628806640625,0.20514999330043793,0.11096250265836716,0.021312499418854713
1766408812425809400,13.638809326171875,0.20308749377727509,0.10353749990463257,-0.0424874983727932
1766408812435812000,13.64881201171875,0.21793749928474426,0.1120624989271164,-0.10436250269412994
1766408812450816300,13.663816162109375,0.25423750281333923,0.11742500215768814,-0.17778749763965607
1766408812465820200,13.678820068359375,0.29260000586509705,0.11426249891519547,-0.24488750100135803
1766408812480824000,13.693823974609375,0.32133749127388,0.11096250265836716,-0.31735000014305115
1766408812500829400,13.713829345703125,0.3330250084400177,0.11316250264644623,-0.3770250082015991
1766408812515833600,13.72883349609375,0.32023748755455017,0.05664999783039093,-0.3684999942779541
1766408812530837500,13.74383740234375,0.2957625091075897,-0.030662499368190765,-0.3003000020980835
1766408812540840000,13.75383984375,0.2722499966621399,-0.11371249705553055,-0.20336249470710754
1766408812550843000,13.7638427734375,0.24777500331401825,-0.1765500009059906,-0.0989999994635582
1766408812560845600,13.773845458984376,0.21793749928474426,-0.21821250021457672,-0.015949999913573265
1766408812570848300,13.78384814453125,0.1891999989748001,-0.26179999113082886,0.02667500078678131
1766408812580851000,13.793850830078124,0.15826250612735748,-0.30236250162124634,0.033137500286102295
1766408812595854800,13.808854736328126,0.1317249983549118,-0.3172124922275543,0.028875000774860382
1766408812605857500,13.818857421875,0.1317249983549118,-0.31088748574256897,0.057612501084804535
1766408812615860500,13.828860595703125,0.1391499936580658,-0.27678748965263367,0.09913749992847443
1766408812625863000,13.83886279296875,0.14451250433921814,-0.23526249825954437,0.13103750348091125
1766408812640867000,13.8538671875,0.12319999933242798,-0.24268749356269836,0.15565000474452972
1766408812650869800,13.863869873046875,0.11247500032186508,-0.28421249985694885,0.14176249504089355
1766408812665873700,13.878873779296875,0.11783749610185623,-0.3928374946117401,0.09267500042915344
1766408812675876400,13.88887646484375,0.1284250020980835,-0.4866124987602234,0.06077500060200691
1766408812690880500,13.903880615234375,0.17861250042915344,-0.5665000081062317,-0.0042624999769032
1766408812705884400,13.918884521484374,0.2616625130176544,-0.5025625228881836,-0.0873124971985817
1766408812715887000,13.92888720703125,0.3469125032424927,-0.39077499508857727,-0.1266375035047531
1766408812730891000,13.94389111328125,0.49816250801086426,-0.2628999948501587,-0.15757499635219574
1766408812740894000,13.95389404296875,0.5726875066757202,-0.24901250004768372,-0.15757499635219574
1766408812750896400,13.963896484375,0.6045874953269958,-0.2564375102519989,-0.1564749926328659
1766408812765900500,13.978900634765624,0.5706250071525574,-0.3928374946117401,-0.17998750507831573
1766408812775903200,13.9889033203125,0.5076500177383423,-0.5685625076293945,-0.21615000069141388
1766408812790907100,14.0039072265625,0.3596999943256378,-0.784850001335144,-0.2694999873638153
1766408812800909800,14.013909912109375,0.2574000060558319,-0.8595125079154968,-0.28008750081062317
1766408812810912800,14.023912841796875,0.18603749573230743,-0.8775249719619751,-0.258774995803833
1766408812820915200,14.033915283203125,0.15193749964237213,-0.8849499821662903,-0.21615000069141388
1766408812830918000,14.04391796875,0.15193749964237213,-0.8925125002861023,-0.17778749763965607
1766408812840920600,14.053920654296874,0.1625249981880188,-0.8967750072479248,-0.14272500574588776
1766408812855924700,14.0689248046875,0.16362500190734863,-0.8445249795913696,-0.09583749622106552
1766408812865927200,14.07892724609375,0.14024999737739563,-0.7635374665260315,-0.057475000619888306
1766408812880931300,14.093931396484376,0.07095000147819519,-0.6324999928474426,0
1766408812890934000,14.10393408203125,0.012374999932944775,-0.563337504863739,0.03519999980926514
1766408812900936700,14.113936767578124,-0.0387750007212162,-0.518512487411499,0.05871250107884407
1766408812910939400,14.123939453125,-0.07823749631643295,-0.4716250002384186,0.05224999785423279
1766408812920942000,14.133942138671875,-0.08772499859333038,-0.43230000138282776,0.0042624999769032
1766408812930944800,14.14394482421875,-0.06861250102519989,-0.4152500033378601,-0.0798875018954277
1766408812945948700,14.15894873046875,0.0038499999791383743,-0.4376625120639801,-0.2662000060081482
1766408812955951400,14.168951416015625,0.05816249921917915,-0.4758875072002411,-0.3951750099658966
1766408812970955500,14.18395556640625,0.11990000307559967,-0.5196124911308289,-0.5006374716758728
1766408812980958200,14.193958251953125,0.1434125006198883,-0.5526124835014343,-0.47286251187324524
1766408812990960600,14.203960693359376,0.14767499268054962,-0.5685625076293945,-0.38871249556541443
1766408813000963300,14.21396337890625,0.13695000112056732,-0.5579749941825867,-0.2652375102043152
1766408813010966300,14.22396630859375,0.11783749610185623,-0.5303375124931335,-0.11811249703168869
1766408813020968700,14.23396875,0.08483749628067017,-0.48867499828338623,0.04908749833703041
1766408813030971400,14.243971435546875,0.03258749842643738,-0.4610374867916107,0.21422499418258667
1766408813040974000,14.25397412109375,-0.028049999848008156,-0.44714999198913574,0.3601124882698059
1766408813050976800,14.263976806640626,-0.07603749632835388,-0.45471251010894775,0.4815250039100647
1766408813065981000,14.27898095703125,-0.09308750182390213,-0.4684624969959259,0.608299970626831
1766408813075983600,14.288983642578126,-0.057887498289346695,-0.4758875072002411,0.6488624811172485
1766408813085986300,14.298986328125,0.01347499992698431,-0.48977500200271606,0.6498249769210815
1766408813095989000,14.308989013671875,0.11893749982118607,-0.534600019454956,0.6190249919891357
1766408813105991400,14.318991455078125,0.24351249635219574,-0.5909749865531921,0.5678749680519104
1766408813120995300,14.333995361328125,0.37564998865127563,-0.6154500246047974,0.45278748869895935
1766408813135999500,14.34899951171875,0.4683249890804291,-0.592074990272522,0.3217499852180481
1766408813146002200,14.359002197265625,0.5152124762535095,-0.5451874732971191,0.2525874972343445
1766408813156004900,14.3690048828125,0.5535749793052673,-0.4641999900341034,0.19923749566078186
1766408813171009000,14.384009033203125,0.5971624851226807,-0.2895750105381012,0.1588124930858612
1766408813181011700,14.39401171875,0.5971624851226807,-0.1648624986410141,0.13859999179840088
1766408813191014100,14.40401416015625,0.5758500099182129,-0.053075000643730164,0.10339999943971634
1766408813201017000,14.41401708984375,0.5460125207901001,0.06407500058412552,0.04908749833703041
1766408813211019800,14.424019775390626,0.5343250036239624,0.2186249941587448,-0.026537500321865082
1766408813221022500,14.4340224609375,0.5439500212669373,0.3783999979496002,-0.12347500026226044
1766408813236026400,14.4490263671875,0.5706250071525574,0.550962507724762,-0.23539999127388
1766408813251030300,14.4640302734375,0.5417500138282776,0.5700749754905701,-0.24818749725818634
1766408813261033000,14.474032958984376,0.47464999556541443,0.5541250109672546,-0.21834999322891235
1766408813271035600,14.48403564453125,0.381012499332428,0.5498625040054321,-0.15441249310970306
1766408813286039800,14.499039794921876,0.2083124965429306,0.46997499465942383,-0.019112499430775642
1766408813301043700,14.514043701171875,0.06888750195503235,0.5264874696731567,0.05115000158548355
1766408813311046700,14.524046630859376,0.09336250275373459,0.30703750252723694,0.11824999749660492
1766408813321049300,14.53404931640625,0.07095000147819519,0.14726249873638153,0.16940000653266907
1766408813331051800,14.5440517578125,-0.02914999984204769,0.22921249270439148,0.2003374993801117
1766408813341054500,14.554054443359375,-0.060087498277425766,0.11852499842643738,0.22481249272823334
1766408813351057200,14.56405712890625,-0.09102500230073929,-0.027499999850988388,0.3324750065803528
1766408813361059800,14.574059814453125,-0.12828749418258667,-0.0849749967455864,0.4624125063419342
1766408813371062500,14.5840625,-0.1676124930381775,-0.07438749819993973,0.5741999745368958
1766408813381065200,14.594065185546874,-0.16871249675750732,-0.01251249946653843,0.6242499947547913
1766408813396069400,14.6090693359375,-0.09735000133514404,0.08758749812841415,0.5667750239372253
1766408813411073300,14.6240732421875,-0.023787500336766243,0.05348749831318855,0.37290000915527344
1766408813421076000,14.634075927734376,-0.01209999993443489,-0.045649997889995575,0.22907499969005585
1766408813431079000,14.644078857421874,-0.018562499433755875,-0.15853749215602875,0.11508750170469284
1766408813446082800,14.659082763671876,-0.028049999848008156,-0.21175000071525574,-0.006324999965727329
1766408813456085200,14.669085205078124,-0.02708750031888485,-0.0999625027179718,-0.04152499884366989
1766408813471089400,14.68408935546875,-0.0035749999806284904,0.23251250386238098,-0.05953750014305115
1766408813481092000,14.694092041015624,0.025162499397993088,0.48069998621940613,-0.10642500221729279
1766408813491094800,14.7040947265625,0.04331250116229057,0.5904250144958496,-0.16183750331401825
1766408813501097200,14.71409716796875,0.04221250116825104,0.5819000005722046,-0.21931250393390656
1766408813516101400,14.729101318359374,0.005912499967962503,0.5040749907493591,-0.3460874855518341
1766408813526104000,14.73910400390625,-0.030249999836087227,0.445499986410141,-0.4302375018596649
1766408813536106800,14.749106689453125,-0.06641250103712082,0.38472500443458557,-0.49953749775886536
1766408813546109400,14.759109375,-0.09308750182390213,0.3389374911785126,-0.5399624705314636
1766408813556112100,14.769112060546876,-0.09955000132322311,0.31556248664855957,-0.562375009059906
1766408813566114800,14.77911474609375,-0.0919874981045723,0.3422375023365021,-0.5783249735832214
