time,seconds_elapsed,z,y,x
1766408799002364400,0.215364501953125,7.300950527191162,2.7810001373291016,1.842000126838684
1766408799012366800,0.225366943359375,7.2870001792907715,2.677950143814087,1.6030501127243042
1766408799022369500,0.23536962890625,7.543050289154053,2.48895001411438,1.194000005722046
1766408799032372000,0.2453720703125,8.143950462341309,2.3400001525878906,0.6810000538825989
1766408799042374400,0.25537451171875,8.770950317382812,2.3899500370025635,0.26205000281333923
1766408799052376800,0.265376953125,9.027000427246094,2.625000238418579,-0.012000000104308128
1766408799062379300,0.275379150390625,9.031949996948242,2.905050039291382,-0.12195000797510147
1766408799072382000,0.2853818359375,8.926950454711914,3.046950101852417,-0.024000000208616257
1766408799082384100,0.295384033203125,8.826000213623047,3.0700502395629883,0.19500000774860382
1766408799092386800,0.30538671875,8.668050765991211,3.3700501918792725,0.09195000678300858
1766408799102389200,0.31538916015625,8.440950393676758,3.6000001430511475,0.019950000569224358
1766408799112392000,0.325391845703125,8.098050117492676,3.5370001792907715,-0.04800000041723251
1766408799122394400,0.335394287109375,7.4569501876831055,2.905050039291382,-0.8530500531196594
1766408799132396800,0.345396728515625,8.994000434875488,2.0940001010894775,-0.29205000400543213
1766408799142399200,0.355399169921875,9.094050407409668,2.854950189590454,-1.4080500602722168
1766408799152401700,0.365401611328125,9.349950790405273,3.516000270843506,-1.3480501174926758
1766408799162404400,0.375404296875,10.27500057220459,3.7480502128601074,-0.9150000214576721
1766408799172406800,0.38540673828125,11.11305046081543,3.66195011138916,-0.4069500267505646
1766408799182409200,0.3954091796875,11.943000793457031,3.6090002059936523,-0.22305001318454742
1766408799202414000,0.4154140625,11.40195083618164,3.4609501361846924,-0.3550500273704529
1766408799222419200,0.435419189453125,9.6739501953125,3.5470502376556396,-0.45705002546310425
1766408799232421600,0.445421630859375,8.614950180053711,3.580050230026245,-0.5530500411987305
1766408799242424000,0.455424072265625,7.726950168609619,3.6090002059936523,-0.520050048828125
1766408799252426500,0.465426513671875,7.063950538635254,3.6739501953125,-0.3829500079154968
1766408799262429000,0.475428955078125,7.0159502029418945,3.6910502910614014,-0.22005000710487366
1766408799272431600,0.485431640625,7.786950588226318,3.5560500621795654,-0.4429500102996826
1766408799282434300,0.495434326171875,8.508000373840332,3.3169500827789307,-0.7470000386238098
1766408799292436700,0.505436767578125,9.109050750732422,2.9599502086639404,-0.687000036239624
1766408799302439200,0.515439208984375,9.595050811767578,2.659050226211548,-0.8119500279426575
1766408799312441600,0.525441650390625,9.681000709533691,2.5290000438690186,-0.9510000348091125
1766408799322444000,0.535444091796875,9.361950874328613,2.48895001411438,-0.8209500312805176
1766408799332446500,0.545446533203125,8.89995002746582,2.4499502182006836,-0.8050500154495239
1766408799342449000,0.555448974609375,10.2649507522583,2.3209500312805176,-0.7710000276565552
1766408799352451600,0.56545166015625,10.684050559997559,2.593950033187866,-1.5180001258850098
1766408799362454000,0.5754541015625,10.497000694274902,2.7280502319335938,-2.1859500408172607
1766408799372456400,0.58545654296875,9.43695068359375,2.6490001678466797,-2.0329501628875732
1766408799382459100,0.595459228515625,8.058000564575195,2.686950206756592,-1.3459500074386597
1766408799402464000,0.615464111328125,6.208950519561768,3.0870001316070557,-1.0300500392913818
1766408799412466700,0.625466796875,5.668050289154053,2.9440500736236572,-1.1230500936508179
1766408799422468900,0.63546875,5.887950420379639,2.659050226211548,-1.798050045967102
1766408799432471600,0.645471435546875,7.042050361633301,2.9790000915527344,-2.39205002784729
1766408799442474000,0.655473876953125,9.472949981689453,3.157050132751465,-3.3040502071380615
1766408799452476400,0.665476318359375,12.127950668334961,2.854950189590454,-4.152000427246094
1766408799462478800,0.675478759765625,13.52400016784668,2.2729501724243164,-4.9830002784729
1766408799472481300,0.685481201171875,13.545001029968262,1.902000069618225,-5.017950057983398
1766408799482484000,0.69548388671875,12.484050750732422,1.3180500268936157,-4.611000061035156
1766408799492486700,0.705486572265625,10.65000057220459,1.201050043106079,-4.3909502029418945
1766408799502489000,0.715489013671875,8.938950538635254,1.6320000886917114,-4.135050296783447
1766408799512491500,0.725491455078125,7.962000370025635,2.284950017929077,-3.321000099182129
1766408799522494000,0.735493896484375,7.579050540924072,2.7300000190734863,-2.7750000953674316
1766408799532496400,0.745496337890625,7.6459503173828125,2.9670002460479736,-2.8780500888824463
1766408799542498800,0.755498779296875,8.152950286865234,3.1020002365112305,-3.0960001945495605
1766408799552501500,0.76550146484375,8.725950241088867,3.0919501781463623,-3.100950241088867
1766408799562504000,0.77550390625,9.17805004119873,2.971950054168701,-2.968950033187866
1766408799572506400,0.78550634765625,9.552000045776367,2.974950075149536,-2.8660502433776855
1766408799582508800,0.7955087890625,9.609000205993652,2.785950183868408,-2.763000249862671
1766408799592511200,0.80551123046875,9.784050941467285,1.6840500831604004,-1.966050148010254
1766408799602513700,0.815513671875,9.682950019836426,2.218050003051758,-2.1499500274658203
1766408799612516000,0.82551611328125,10.12605094909668,3.5329501628875732,-3.261000156402588
1766408799622518800,0.835518798828125,10.087950706481934,4.215000152587891,-3.856950283050537
1766408799632521200,0.845521240234375,9.211950302124023,4.3969502449035645,-3.718050241470337
1766408799642524000,0.85552392578125,8.140950202941895,3.7099502086639404,-2.8279502391815186
1766408799652526300,0.8655263671875,7.642950534820557,3.0799500942230225,-2.1480000019073486
1766408799662528800,0.87552880859375,7.717950344085693,2.91195011138916,-2.076000213623047
1766408799672531200,0.88553125,8.260950088500977,2.8690500259399414,-2.133000135421753
1766408799682533600,0.89553369140625,8.611050605773926,2.5960500240325928,-1.6500000953674316
1766408799692536000,0.9055361328125,8.979000091552734,1.987950086593628,-0.8620500564575195
1766408799702538500,0.91553857421875,9.003000259399414,2.009999990463257,-1.0300500392913818
1766408799712541200,0.925541259765625,8.505000114440918,2.1610500812530518,-1.4610000848770142
1766408799722543600,0.935543701171875,7.873050212860107,2.7090001106262207,-1.5829501152038574
1766408799732546000,0.945546142578125,7.488000392913818,3.4560000896453857,-1.6810500621795654
1766408799742548500,0.955548583984375,7.588050365447998,4.215000152587891,-2.0280001163482666
1766408799752551000,0.965551025390625,8.11305046081543,4.768050193786621,-2.302950143814087
1766408799762553300,0.97555322265625,9.006000518798828,5.425950050354004,-2.4160501956939697
1766408799772556000,0.98555615234375,9.937050819396973,5.469000339508057,-2.502000093460083
1766408799782558700,0.995558837890625,10.405950546264648,4.641000270843506,-2.0400002002716064
1766408799792561200,1.00556103515625,9.760050773620605,3.7290000915527344,-1.6230000257492065
1766408799802563600,1.0155634765625,9.346050262451172,3.1690502166748047,-1.2280501127243042
1766408799812566000,1.02556591796875,8.931000709533691,2.986950159072876,-1.1040000915527344
1766408799822568400,1.035568359375,9.621000289916992,3.2479500770568848,-1.1209501028060913
1766408799832571000,1.04557080078125,10.669950485229492,3.76200008392334,-0.7330500483512878
1766408799842573600,1.055573486328125,11.13900089263916,4.0570502281188965,-0.7140000462532043
1766408799852576000,1.065575927734375,10.88700008392334,3.882000207901001,-0.7380000352859497
1766408799862578400,1.075578369140625,10.023000717163086,3.4150502681732178,-0.9169500470161438
1766408799872580900,1.085580810546875,9.565950393676758,3.223950147628784,-1.0320000648498535
1766408799882583300,1.095583251953125,9.370050430297852,3.255000114440918,-1.1020500659942627
1766408799892585700,1.105585693359375,9.540000915527344,3.4680001735687256,-1.437000036239624
1766408799902588200,1.115588134765625,10.093050003051758,3.516000270843506,-1.828950047492981
1766408799912590800,1.1255908203125,10.428000450134277,3.394050121307373,-1.7790000438690186
1766408799922593000,1.135593017578125,10.344000816345215,3.394050121307373,-1.4080500602722168
1766408799932595700,1.145595703125,10.01400089263916,3.2860500812530518,-1.0390501022338867
1766408799942598400,1.155598388671875,9.658950805664062,3.1810500621795654,-0.5839500427246094
1766408799952600800,1.165600830078125,9.72195053100586,3.343050241470337,-0.48405003547668457
1766408799962603300,1.175603271484375,9.937050819396973,2.7829501628875732,-0.2850000262260437
1766408799972605700,1.185605712890625,11.44800090789795,2.794950246810913,-0.9030000567436218
1766408799982608100,1.195608154296875,10.86405086517334,3.403050184249878,-1.7700001001358032
1766408799992610600,1.205610595703125,9.211950302124023,2.7900002002716064,-2.9260501861572266
1766408800002613000,1.215613037109375,9.736050605773926,2.635050058364868,-2.7940502166748047
1766408800012615700,1.22561572265625,10.78695011138916,3.2310001850128174,-1.6950000524520874
1766408800022618000,1.2356181640625,11.689950942993164,3.4489500522613525,-0.7519500255584717
1766408800032620500,1.24562060546875,11.541000366210938,3.267000198364258,-1.0870500802993774
1766408800042623000,1.255623046875,10.267050743103027,3.29295015335083,-1.374000072479248
1766408800052625400,1.26562548828125,8.830950736999512,3.0109500885009766,-1.1880000829696655
1766408800072630300,1.28563037109375,6.6190505027771,2.7660000324249268,-2.116950035095215
1766408800082632700,1.2956328125,7.855950355529785,3.580050230026245,-0.4140000343322754
1766408800092635100,1.30563525390625,9.288000106811523,4.593000411987305,1.062000036239624
1766408800102638000,1.31563818359375,9.232950210571289,4.777950286865234,0.9610500335693359
1766408800112640300,1.32564013671875,9.8100004196167,4.047000408172607,0.612000048160553
1766408800122643000,1.335642822265625,10.294050216674805,2.8909502029418945,0.3840000033378601
1766408800132645400,1.345645263671875,10.059000015258789,2.247000217437744,0.40800002217292786
1766408800142647800,1.355647705078125,10.167000770568848,2.1010501384735107,0.4939500093460083
1766408800152650200,1.365650146484375,9.943950653076172,1.5480000972747803,1.1620500087738037
1766408800212665000,1.4256650390625,8.653950691223145,2.386050224304199,1.3920000791549683
1766408800222667500,1.43566748046875,9.147000312805176,2.39805006980896,1.4280000925064087
1766408800232670000,1.445669921875,9.358050346374512,2.296950101852417,1.8139500617980957
1766408800252674800,1.4656748046875,9.015000343322754,2.278050184249878,1.6320000886917114
1766408800302687500,1.5156875,6.913050174713135,2.725950241088867,2.4000000953674316
1766408800342697500,1.555697509765625,8.581950187683105,2.5600500106811523,3.0949501991271973
1766408800352700000,1.565699951171875,9.15195083618164,2.2110002040863037,3.30495023727417
1766408800362702300,1.575702392578125,9.367050170898438,2.2420501708984375,3.3390002250671387
1766408800372704800,1.585704833984375,9.111000061035156,2.632050037384033,3.142050266265869
1766408800382707200,1.595707275390625,8.733000755310059,3.0730502605438232,2.6490001678466797
1766408800392709600,1.605709716796875,8.51205062866211,3.352950096130371,2.367000102996826
1766408800402712300,1.61571240234375,8.596050262451172,3.4609501361846924,2.047950029373169
1766408800412714500,1.625714599609375,8.709000587463379,3.492000102996826,1.7610000371932983
1766408800422717200,1.63571728515625,8.713950157165527,3.4870500564575195,1.5810000896453857
1766408800432719600,1.6457197265625,8.713950157165527,3.4800002574920654,1.6630500555038452
1766408800442722000,1.65572216796875,8.641950607299805,3.4870500564575195,1.9330500364303589
1766408800452724500,1.665724365234375,8.67495059967041,3.6040501594543457,2.149049997329712
1766408800462727200,1.67572705078125,8.878950119018555,3.730950117111206,2.224950075149536
1766408800472729300,1.685729248046875,9.087000846862793,3.802950143814087,2.0080502033233643
1766408800492734500,1.705734375,9.9660005569458,4.047000408172607,0.7270500063896179
1766408800512739600,1.725739501953125,10.504050254821777,3.8989500999450684,0.4420500099658966
1766408800522742000,1.735741943359375,9.81705093383789,3.681000232696533,0.5209500193595886
1766408800632769000,1.84576904296875,10.393950462341309,2.527050018310547,-0.1080000028014183
1766408800722791400,1.93579150390625,9.729000091552734,2.6800501346588135,-2.593050241470337
1766408800797810000,2.010809814453125,10.476000785827637,0.9760500192642212,0.031950000673532486
1766408800852823600,2.065823486328125,11.187000274658203,1.13100004196167,0.9400500655174255
1766408800862826200,2.075826171875,10.396950721740723,0.9799500703811646,1.1860500574111938
1766408800872828700,2.08582861328125,9.463050842285156,0.8850000500679016,1.1650500297546387
1766408800882831000,2.0958310546875,8.74905014038086,1.114050030708313,1.1149500608444214
1766408800907837400,2.12083740234375,7.678950309753418,2.565000057220459,0.2070000171661377
1766408800917840000,2.13083984375,7.588050365447998,2.877000093460083,-0.20100000500679016
1766408800927842300,2.14084228515625,7.504050254821777,3.094050168991089,-0.6319500207901001
1766408800937844700,2.1508447265625,7.468950271606445,3.2400002479553223,-0.8640000224113464
1766408800947847200,2.16084716796875,7.782000541687012,3.384000062942505,-0.690000057220459
1766408800957849600,2.170849609375,7.828050136566162,3.4270501136779785,-0.3349500298500061
1766408800972853200,2.185853271484375,8.043000221252441,3.103950262069702,0.4849500358104706
1766408800982856000,2.19585595703125,8.34000015258789,2.5320000648498535,1.3920000791549683
1766408800997859600,2.210859619140625,8.614950180053711,2.6299500465393066,1.8259501457214355
1766408801007862000,2.220862060546875,9.154050827026367,2.5099501609802246,1.9840500354766846
1766408801022865700,2.23586572265625,9.20895004272461,2.31600022315979,2.118000030517578
1766408801032868000,2.2458681640625,9.445950508117676,2.2159500122070312,2.050950050354004
1766408801042870500,2.25587060546875,9.520050048828125,2.2230000495910645,1.8540000915527344
1766408801057874200,2.270874267578125,9.279000282287598,2.625000238418579,1.4280000925064087
1766408801067876900,2.280876953125,9.111000061035156,3.015000104904175,1.3060500621795654
1766408801077879600,2.290879638671875,9.22800064086914,3.160950183868408,1.1290500164031982
1766408801087882000,2.300882080078125,9.657000541687012,3.0420000553131104,0.8770500421524048
1766408801097884200,2.31088427734375,10.06605052947998,2.806950092315674,0.7909500598907471
1766408801107886800,2.320886962890625,10.272000312805176,2.7589502334594727,0.6450000405311584
1766408801117889300,2.33088916015625,10.216950416564941,2.9670002460479736,0.3679500222206116
1766408801127891700,2.3408916015625,9.943950653076172,3.2790000438690186,0.09000000357627869
1766408801142895400,2.355895263671875,9.574950218200684,3.5490002632141113,0.028050001710653305
1766408801152897800,2.365897705078125,9.637950897216797,3.8490002155303955,0.43695002794265747
1766408801162900200,2.375900146484375,9.769050598144531,3.8610002994537354,0.26205000281333923
1766408801192907800,2.40590771484375,9.858000755310059,3.76200008392334,0.7120500206947327
1766408801207911400,2.420911376953125,9.955950736999512,3.9180002212524414,0.9540000557899475
1766408801217913900,2.430913818359375,10.342050552368164,3.8680500984191895,1.2169500589370728
1766408801227916500,2.44091650390625,10.762950897216797,3.6450002193450928,1.689000129699707
1766408801237919000,2.4509189453125,11.155950546264648,3.3859500885009766,2.2920000553131104
1766408801247921400,2.46092138671875,11.578950881958008,3.0679502487182617,2.6490001678466797
1766408801257924000,2.470924072265625,11.91195011138916,2.836050033569336,2.764050245285034
1766408801267926300,2.48092626953125,11.745000839233398,2.580000162124634,2.697000026702881
1766408801277928700,2.4909287109375,11.131950378417969,2.476950168609619,2.5099501609802246
1766408801287931400,2.500931396484375,10.417950630187988,2.6680500507354736,2.3430001735687256
1766408801297933800,2.510933837890625,10.140000343322754,2.9389500617980957,2.338050127029419
1766408801307936300,2.520936279296875,10.35105037689209,2.926950216293335,2.299950122833252
1766408801317939000,2.53093896484375,10.654950141906738,2.7229502201080322,2.3590500354766846
1766408801327941400,2.54094140625,10.85205078125,2.4600000381469727,2.3519999980926514
1766408801337943800,2.55094384765625,10.89900016784668,2.3140501976013184,2.3359501361846924
1766408801347946200,2.5609462890625,10.780050277709961,2.307000160217285,2.376000165939331
1766408801362950000,2.575949951171875,9.753000259399414,2.0940001010894775,1.9330500364303589
1766408801377953500,2.59095361328125,9.007950782775879,2.4460501670837402,1.8160500526428223
1766408801387956200,2.600956298828125,8.635050773620605,2.48895001411438,1.8300000429153442
1766408801397958700,2.610958740234375,8.284950256347656,2.577000141143799,1.998000144958496
1766408801407961000,2.620961181640625,8.059950828552246,2.565000057220459,2.187000036239624
1766408801417963500,2.630963623046875,7.825050354003906,2.515050172805786,2.3740501403808594
1766408801427966000,2.640966064453125,7.501950263977051,2.367000102996826,2.4910500049591064
1766408801437968400,2.650968505859375,7.333950519561768,2.197050094604492,2.632050037384033
1766408801447971000,2.66097119140625,7.42995023727417,2.007000207901001,2.8219501972198486
1766408801457973800,2.670973876953125,7.549950122833252,1.7730001211166382,2.7280502319335938
1766408801467976200,2.68097607421875,7.560000419616699,1.4830501079559326,2.3400001525878906
1766408801477978600,2.690978515625,7.594950199127197,1.4350500106811523,1.8690000772476196
1766408801487981000,2.70098095703125,7.42995023727417,1.6429500579833984,1.4110500812530518
1766408801497983500,2.7109833984375,7.224000453948975,1.7800500392913818,1.0519500970840454
1766408801507986000,2.72098583984375,7.312950134277344,1.858950138092041,0.8320500254631042
1766408801517988400,2.73098828125,7.6620001792907715,1.7700001001358032,0.8010000586509705
1766408801527991000,2.740990966796875,8.12700080871582,1.702950119972229,0.9280500411987305
1766408801542994700,2.75599462890625,8.40000057220459,1.8610501289367676,1.4449501037597656
1766408801552997000,2.7659970703125,8.206049919128418,2.089050054550171,1.5619500875473022
1766408801562999600,2.77599951171875,7.738950252532959,1.974000096321106,1.4350500106811523
1766408801573002000,2.786001953125,7.548000335693359,2.137050151824951,1.5979501008987427
1766408801588006000,2.801005859375,7.324950218200684,2.533950090408325,1.7299500703811646
1766408801598008300,2.81100830078125,7.411050319671631,2.826000213623047,1.6840500831604004
1766408801608010800,2.8210107421875,7.504050254821777,3.123000144958496,1.6050000190734863
1766408801618013400,2.831013427734375,7.504050254821777,3.3889501094818115,1.4689500331878662
1766408801628015900,2.841015869140625,7.501950263977051,3.6259500980377197,1.4350500106811523
1766408801638018300,2.851018310546875,7.569000244140625,3.7669501304626465,1.4350500106811523
1766408801648020700,2.861020751953125,7.627050399780273,3.802950143814087,1.4590500593185425
1766408801658023200,2.871023193359375,7.7440505027771,3.8610002994537354,1.3900500535964966
1766408801668025600,2.881025634765625,8.208000183105469,3.9750001430511475,1.3129500150680542
1766408801678028300,2.8910283203125,8.821050643920898,3.9660000801086426,1.2390000820159912
1766408801688030700,2.90103076171875,9.54900074005127,3.8680500984191895,1.0810500383377075
1766408801698033200,2.911033203125,10.236000061035156,3.862950086593628,0.934950053691864
1766408801708035600,2.92103564453125,10.579050064086914,3.9370501041412354,0.6690000295639038
1766408801718038000,2.9310380859375,10.801050186157227,4.090050220489502,0.4249500334262848
1766408801733041700,2.946041748046875,11.047950744628906,3.8770501613616943,0.4030500054359436
1766408801748045300,2.96104541015625,11.059950828552246,3.3889501094818115,0.7980000376701355
1766408801758048000,2.971048095703125,11.005050659179688,3.2260501384735107,1.1100000143051147
1766408801768050400,2.981050537109375,11.026050567626953,3.0990002155303955,1.3440001010894775
1766408801778052900,2.991052978515625,10.897050857543945,2.8879501819610596,1.5739500522613525
1766408801788055600,3.0010556640625,11.050050735473633,2.854950189590454,1.749000072479248
1766408801798058000,3.01105810546875,11.493000984191895,2.971950054168701,1.6870501041412354
1766408801813061600,3.0260615234375,11.42400074005127,2.8789501190185547,1.5649501085281372
1766408801823064000,3.03606396484375,11.397000312805176,2.776050090789795,1.6990500688552856
1766408801833066500,3.04606640625,11.292000770568848,2.7180001735687256,1.6800000667572021
1766408801843069000,3.05606884765625,10.813050270080566,2.6539502143859863,1.4160000085830688
1766408801858072800,3.07107275390625,10.207950592041016,2.587050199508667,0.8680500388145447
1766408801868075300,3.0810751953125,10.051950454711914,2.4840002059936523,0.45795002579689026
1766408801883079000,3.096078857421875,9.84795093536377,2.2540500164031982,-0.004950000438839197
1766408801898082800,3.111082763671875,10.138050079345703,2.2110002040863037,-0.4650000333786011
1766408801913086700,3.126086669921875,10.744050979614258,1.915950059890747,-0.4930500090122223
1766408801928090400,3.14109033203125,11.12700080871582,1.5840001106262207,-0.32805001735687256
1766408801938092800,3.1510927734375,10.986000061035156,1.4449501037597656,-0.325950026512146
1766408801948095200,3.16109521484375,10.927950859069824,1.4880000352859497,-0.48900002241134644
1766408801958097700,3.17109765625,10.7989501953125,1.7010000944137573,-0.8239500522613525
1766408801968100000,3.18110009765625,10.33905029296875,1.7989500761032104,-1.1400001049041748
1766408801978102500,3.1911025390625,9.646950721740723,1.9380000829696655,-1.3530000448226929
1766408801988105200,3.201105224609375,8.910000801086426,2.2159500122070312,-1.4250000715255737
1766408801998108000,3.21110791015625,8.557950019836426,2.356950044631958,-1.3650000095367432
1766408802008110300,3.2211103515625,8.704050064086914,2.2950000762939453,-1.336050033569336
1766408802018112800,3.23111279296875,8.986050605773926,2.25600004196167,-1.3189500570297241
1766408802028115200,3.241115234375,9.22605037689209,2.164950132369995,-1.2139500379562378
1766408802053121500,3.26612158203125,9.417000770568848,1.9399501085281372,-0.987000048160553
1766408802063124000,3.2761240234375,9.156000137329102,1.9620001316070557,-0.89805006980896
1766408802078127900,3.2911279296875,9.087000846862793,2.197050094604492,-0.5389500260353088
1766408802103134000,3.316134033203125,8.826000213623047,2.3830502033233643,0.018000001087784767
1766408802118137600,3.3311376953125,8.326050758361816,2.6110501289367676,0.29295000433921814
1766408802128140000,3.34114013671875,8.235000610351562,2.6080501079559326,0.34800001978874207
1766408802153146400,3.366146484375,7.594950199127197,2.794950246810913,0.46095001697540283
1766408802183153700,3.396153564453125,7.710000514984131,2.9670002460479736,0.6049500107765198
1766408802198157600,3.411157470703125,8.287050247192383,2.886000156402588,0.4249500334262848
1766408802213161500,3.426161376953125,8.874000549316406,2.829000234603882,0.3559500277042389
1766408802223164000,3.436163818359375,9.20895004272461,2.794950246810913,0.38895002007484436
1766408802238167600,3.45116748046875,9.397950172424316,2.7829501628875732,0.21405000984668732
1766408802248170000,3.461169921875,9.50100040435791,2.8380000591278076,0.22095000743865967
1766408802258172700,3.471172607421875,9.580050468444824,2.8530001640319824,0.37905001640319824
1766408802273176600,3.486176513671875,9.859950065612793,3.00600004196167,0.5710500478744507
1766408802283179000,3.496178955078125,10.015950202941895,3.184950113296509,0.6739500164985657
1766408802293181400,3.506181396484375,9.910950660705566,3.4080002307891846,0.8059500455856323
1766408802308185000,3.52118505859375,9.492000579833984,3.8050501346588135,0.8730000257492065
1766408802318187800,3.531187744140625,9.247050285339355,4.071000099182129,0.9450000524520874
1766408802333191400,3.54619140625,9.085050582885742,4.2460503578186035,1.0999500751495361
1766408802348195000,3.561195068359375,9.085050582885742,4.222050189971924,0.8440500497817993
1766408802358197500,3.571197509765625,9.26400089263916,4.123950004577637,0.6720000505447388
1766408802368200200,3.5812001953125,9.420000076293945,3.9660000801086426,0.6019500494003296
1766408802378202600,3.59120263671875,9.586950302124023,3.841050148010254,0.5539500117301941
1766408802388205000,3.601205078125,9.544050216674805,3.573000192642212,0.7939500212669373
1766408802398207500,3.61120751953125,9.37695026397705,3.2790000438690186,1.0350000858306885
1766408802408210200,3.621210205078125,9.171000480651855,3.1020002365112305,1.3200000524520874
1766408802418212600,3.631212646484375,9.031949996948242,3.0180001258850098,1.64805006980896
1766408802428215000,3.641215087890625,8.794950485229492,2.8210501670837402,1.918950080871582
1766408802438217500,3.651217529296875,8.34000015258789,2.754000186920166,2.1700501441955566
1766408802448220200,3.66122021484375,7.818000316619873,2.7019500732421875,2.3479502201080322
1766408802463223800,3.676223876953125,8.12700080871582,2.575050115585327,2.557950019836426
1766408802473226200,3.686226318359375,9.427050590515137,2.3209500312805176,2.5200002193450928
1766408802483229000,3.69622900390625,10.974000930786133,2.0910000801086426,2.356950044631958
1766408802493231400,3.7062314453125,12.049050331115723,1.9360500574111938,2.319000005722046
1766408802508235000,3.721235107421875,12.475050926208496,1.4850000143051147,2.3239500522613525
1766408802518237400,3.731237548828125,11.97195053100586,1.311000108718872,2.1850500106811523
1766408802528239900,3.741239990234375,10.978050231933594,1.3510500192642212,2.3209500312805176
1766408802543243800,3.756243896484375,9.46095085144043,1.7299500703811646,2.7810001373291016
1766408802553246200,3.76624609375,8.740050315856934,1.9669500589370728,2.874000072479248
1766408802563249000,3.776248779296875,8.377950668334961,2.086050033569336,2.8339500427246094
1766408802573251300,3.786251220703125,8.371050834655762,2.0839500427246094,2.7210001945495605
1766408802583253800,3.796253662109375,8.704050064086914,2.1250500679016113,2.473950147628784
1766408802593256200,3.806256103515625,9.20205020904541,2.127000093460083,2.1559500694274902
1766408802603259000,3.8162587890625,9.796050071716309,2.050950050354004,1.8930001258850098
1766408802613261300,3.82626123046875,10.243050575256348,1.7230501174926758,1.7940000295639038
1766408802623263700,3.836263671875,10.593000411987305,1.371000051498413,1.8300000429153442
1766408802633266200,3.84626611328125,10.627050399780273,1.2220500707626343,1.9690500497817993
1766408802648270000,3.86127001953125,10.27500057220459,1.15500009059906,2.035950183868408
1766408802658272500,3.8712724609375,9.889050483703613,1.1569499969482422,1.842000126838684
1766408802668275200,3.881275146484375,9.433950424194336,1.210050106048584,1.6290000677108765
1766408802678277600,3.891277587890625,9.21405029296875,1.3440001010894775,1.5019500255584717
1766408802688280000,3.901280029296875,9.280950546264648,1.4740500450134277,1.533000111579895
1766408802698282500,3.911282470703125,9.47700023651123,1.5640500783920288,1.6579500436782837
1766408802708285000,3.921284912109375,9.64995002746582,1.711050033569336,1.8570001125335693
1766408802718287600,3.93128759765625,9.505950927734375,1.7779500484466553,1.90500009059906
1766408802728290000,3.9412900390625,9.013050079345703,1.858950138092041,1.8730500936508179
1766408802738292500,3.95129248046875,8.503050804138184,2.1510000228881836,1.88100004196167
1766408802748295200,3.961295166015625,7.777050495147705,2.4000000953674316,1.7419500350952148
1766408802758297600,3.971297607421875,7.174050331115723,2.6680500507354736,1.477950096130371
1766408802773301500,3.986301513671875,7.063950538635254,2.9359500408172607,1.2630000114440918
1766408802788305200,4.00130517578125,7.492950439453125,3.0270001888275146,1.1770501136779785
1766408802798307600,4.0113076171875,7.915950298309326,3.0270001888275146,1.1820000410079956
1766408802808310000,4.02131005859375,8.617950439453125,3.06600022315979,1.0879501104354858
1766408802818312700,4.031312744140625,9.396000862121582,3.0510001182556152,1.01895010471344
1766408802828315100,4.041315185546875,10.023000717163086,2.9389500617980957,1.1890500783920288
1766408802838317600,4.051317626953125,10.368000030517578,2.7210001945495605,1.4659500122070312
1766408802848320300,4.0613203125,10.495050430297852,2.6040000915527344,1.64805006980896
1766408802858322700,4.07132275390625,10.552050590515137,2.5990500450134277,1.7779500484466553
1766408802868325000,4.0813251953125,10.420950889587402,2.53695011138916,1.818000078201294
1766408802888330200,4.101330322265625,9.838950157165527,2.8650002479553223,1.842000126838684
1766408802903334100,4.116334228515625,9.427050590515137,3.078000068664551,1.6939500570297241
1766408802918337800,4.131337890625,9.472949981689453,3.0799500942230225,1.480950117111206
1766408802928340200,4.14134033203125,9.552000045776367,2.974950075149536,1.3870500326156616
1766408802938343000,4.151343017578125,9.871950149536133,2.905050039291382,1.2679500579833984
1766408802948345300,4.161345458984375,10.477950096130371,2.874000072479248,1.0000500679016113
1766408802958347800,4.17134765625,11.074050903320312,2.785950183868408,0.8130000233650208
1766408802968350200,4.18135009765625,11.51205062866211,2.725950241088867,0.8100000619888306
1766408802978353000,4.191352783203125,11.668050765991211,2.7589502334594727,0.8730000257492065
1766408802988355300,4.201355224609375,11.263050079345703,2.605950117111206,0.7939500212669373
1766408802998357800,4.211357666015625,10.67400074005127,2.48895001411438,0.7030500173568726
1766408803013361700,4.226361572265625,9.931950569152832,2.4100501537323,0.2650500237941742
1766408803028365300,4.241365234375,9.856050491333008,2.5990500450134277,-0.39000001549720764
1766408803038368000,4.251367919921875,10.129050254821777,2.754000186920166,-0.8190000653266907
1766408803053371600,4.26637158203125,10.533000946044922,2.7619500160217285,-1.2720000743865967
1766408803068375600,4.28137548828125,10.80405044555664,2.48895001411438,-1.152000069618225
1766408803088380400,4.30138037109375,10.729050636291504,2.3809502124786377,-0.6390000581741333
1766408803103384300,4.31638427734375,10.07295036315918,2.2230000495910645,-0.51705002784729
1766408803113386800,4.32638671875,9.700050354003906,2.2110002040863037,-0.3520500063896179
1766408803123389200,4.33638916015625,9.484050750732422,2.1030001640319824,-0.32805001735687256
1766408803133392000,4.346391845703125,9.409950256347656,1.8019500970840454,-0.5220000147819519
1766408803143394300,4.356394287109375,9.51300048828125,1.5600000619888306,-0.7140000462532043
1766408803158398000,4.37139794921875,9.846000671386719,1.5480000972747803,-0.8880000710487366
1766408803168400400,4.381400390625,10.003950119018555,1.4419500827789307,-0.8860500454902649
1766408803178403000,4.391403076171875,10.09695053100586,1.371000051498413,-0.7620000243186951
1766408803188405800,4.40140576171875,9.939000129699707,1.4350500106811523,-0.7180500626564026
1766408803198408200,4.411408203125,9.574950218200684,1.711050033569336,-0.6709500551223755
1766408803208410600,4.42141064453125,9.022050857543945,2.0239500999450684,-0.6490500569343567
1766408803218413000,4.4314130859375,8.493000030517578,2.2800002098083496,-0.8260500431060791
1766408803228415700,4.441415771484375,8.218050003051758,2.4000000953674316,-0.9550500512123108
1766408803238418400,4.45141845703125,8.263050079345703,2.4220499992370605,-0.9079500436782837
1766408803253422000,4.466422119140625,8.866950035095215,2.4460501670837402,-0.6490500569343567
1766408803268425700,4.48142578125,9.595050811767578,2.4810001850128174,-0.45705002546310425
1766408803278428200,4.49142822265625,9.589950561523438,2.505000114440918,-0.30900001525878906
1766408803293432300,4.506432373046875,8.668050765991211,2.5699501037597656,0.08505000174045563
1766408803313437200,4.526437255859375,7.4350504875183105,2.63700008392334,0.6619500517845154
1766408803323439600,4.536439697265625,7.102050304412842,2.665950059890747,0.7510500550270081
1766408803338443300,4.551443359375,6.834000110626221,2.8530001640319824,0.7459500432014465
1766408803348446000,4.561446044921875,6.990000247955322,3.0079500675201416,0.6720000505447388
1766408803358448400,4.571448486328125,7.303050518035889,3.1279501914978027,0.5659500360488892
1766408803368451000,4.581451171875,7.557000160217285,3.2119500637054443,0.4849500358104706
1766408803378453500,4.59145361328125,7.828050136566162,3.2599501609802246,0.34800001978874207
1766408803388456000,4.6014560546875,8.104949951171875,3.2430002689361572,0.3079500198364258
1766408803398458600,4.611458740234375,8.3899507522583,3.1399500370025635,0.35100001096725464
1766408803408461000,4.6214609375,8.794950485229492,3.0799500942230225,0.39900001883506775
1766408803418463500,4.63146337890625,9.280950546264648,3.025050163269043,0.43695002794265747
1766408803428466000,4.6414658203125,9.652050018310547,2.946000099182129,0.5020500421524048
1766408803438468600,4.651468505859375,9.814950942993164,2.9700000286102295,0.49695003032684326
1766408803453472500,4.666472412109375,9.841050148010254,3.324000120162964,0.5520000457763672
1766408803463475000,4.676474853515625,9.907950401306152,3.5779502391815186,0.5140500068664551
1766408803473477400,4.686477294921875,10.063950538635254,3.8460001945495605,0.49695003032684326
1766408803488481300,4.701481201171875,10.324950218200684,4.189050197601318,0.5260500311851501
1766408803498483700,4.711483642578125,10.444950103759766,4.260000228881836,0.5879999995231628
1766408803508486400,4.721486328125,10.30305004119873,4.219950199127197,0.612000048160553
1766408803518488800,4.73148876953125,9.999000549316406,4.192950248718262,0.5299500226974487
1766408803533492700,4.74649267578125,9.397950172424316,4.078050136566162,0.25995001196861267
1766408803548496400,4.761496337890625,9.37695026397705,3.954000234603882,-0.06705000251531601
1766408803558498800,4.771498779296875,9.961050033569336,3.7890002727508545,-0.09105000644922256
1766408803568501200,4.781501220703125,10.69800090789795,3.6450002193450928,0.22095000743865967
1766408803578504000,4.79150390625,11.196000099182129,3.553950071334839,0.6670500040054321
1766408803593507800,4.8065078125,11.371050834655762,3.670950174331665,1.2439500093460083
1766408803608511500,4.821511474609375,10.91100025177002,3.8389501571655273,1.4209500551223755
1766408803618514000,4.831513916015625,10.404000282287598,3.9160501956939697,1.540950059890747
1766408803628516400,4.841516357421875,9.598950386047363,3.9900002479553223,1.7010000944137573
1766408803638519000,4.85151904296875,8.860050201416016,3.961050271987915,1.8880500793457031
1766408803648521500,4.861521484375,8.520000457763672,3.8340001106262207,1.9930500984191895
1766408803658524200,4.871524169921875,8.716050148010254,3.5899500846862793,2.009999990463257
1766408803673527800,4.88652783203125,9.535050392150879,3.1399500370025635,2.058000087738037
1766408803688531700,4.90153173828125,10.224000930786133,2.742000102996826,2.1919500827789307
1766408803698534100,4.9115341796875,10.423050880432129,2.5510501861572266,2.326050043106079
1766408803708536800,4.921536865234375,10.380000114440918,2.407050132751465,2.476950168609619
1766408803718539300,4.931539306640625,10.011000633239746,2.3020501136779785,2.5320000648498535
1766408803728542000,4.9415419921875,9.598950386047363,2.3110501766204834,2.5530002117156982
1766408803738544400,4.95154443359375,9.075000762939453,2.319000005722046,2.515050172805786
1766408803748547000,4.961547119140625,8.587050437927246,2.3519999980926514,2.5060501098632812
1766408803758549500,4.971549560546875,8.341950416564941,2.3830502033233643,2.5099501609802246
1766408803773553400,4.986553466796875,8.259000778198242,2.323050022125244,2.257050037384033
1766408803788557000,5.00155712890625,8.644050598144531,2.25600004196167,1.8540000915527344
1766408803798559500,5.0115595703125,9.007950782775879,2.2129499912261963,1.6240500211715698
1766408803808562000,5.02156201171875,9.427050590515137,2.1319501399993896,1.3830000162124634
1766408803823565800,5.03656591796875,9.882000923156738,2.009999990463257,1.1260499954223633
1766408803833568500,5.046568603515625,9.906000137329102,1.915950059890747,1.057050108909607
1766408803843571000,5.056571044921875,9.628050804138184,1.8850500583648682,1.075950026512146
1766408803853573400,5.066573486328125,9.295050621032715,1.915950059890747,1.1790000200271606
1766408803868577300,5.081577392578125,8.95305061340332,1.9090501070022583,1.3489500284194946
1766408803883581200,5.096581298828125,8.635050773620605,1.9860000610351562,1.4980500936508179
1766408803893583600,5.10658349609375,8.398050308227539,2.209050178527832,1.6009501218795776
1766408803903586300,5.11658642578125,8.152950286865234,2.48895001411438,1.6320000886917114
1766408803913588700,5.126588623046875,7.882950305938721,2.776050090789795,1.5169501304626465
1766408803923591200,5.136591064453125,7.513950347900391,2.9770500659942627,1.311000108718872
1766408803933593600,5.146593505859375,7.284000396728516,3.1930501461029053,1.1530500650405884
1766408803943596300,5.15659619140625,7.318050384521484,3.331050157546997,1.0260000228881836
1766408803953598700,5.1665986328125,7.5859503746032715,3.3550500869750977,0.9640500545501709
1766408803963601400,5.176601318359375,7.966950416564941,3.2880001068115234,1.024049997329712
1766408803973603800,5.186603759765625,8.227950096130371,3.1969501972198486,1.158000111579895
1766408803988607700,5.201607666015625,8.428950309753418,3.2880001068115234,1.3320000171661377
1766408804003611600,5.216611572265625,8.179950714111328,3.492000102996826,1.4209500551223755
1766408804013614000,5.226614013671875,8.151000022888184,3.6160502433776855,1.4880000352859497
1766408804023616500,5.236616455078125,8.236949920654297,3.682950258255005,1.4310001134872437
1766408804033619200,5.246619140625,8.544000625610352,3.68595027923584,1.3180500268936157
1766408804043621600,5.25662158203125,8.872050285339355,3.705000162124634,1.1740500926971436
1766408804053624000,5.2666240234375,9.20205020904541,3.8269500732421875,1.0210500955581665
1766408804063626800,5.276626708984375,9.457950592041016,3.931950092315674,0.8659500479698181
1766408804073629400,5.28662939453125,9.688050270080566,3.961050271987915,0.781950056552887
1766408804088633000,5.301633056640625,9.985050201416016,4.033050060272217,0.8629500269889832
1766408804098635500,5.311635498046875,9.907950401306152,3.954000234603882,0.9919500350952148
1766408804113639400,5.326639404296875,9.72195053100586,3.8149502277374268,0.9640500545501709
1766408804133644500,5.34664453125,9.784050941467285,3.6280500888824463,0.5490000247955322
1766408804143647200,5.356647216796875,10.06605052947998,3.5470502376556396,0.42705002427101135
1766408804153649700,5.366649658203125,10.564050674438477,3.573000192642212,0.4249500334262848
1766408804163652000,5.376652099609375,11.041050910949707,3.561000108718872,0.4249500334262848
1766408804178656000,5.391656005859375,11.119950294494629,3.3510000705718994,0.35805001854896545
1766408804188658400,5.401658447265625,10.734000205993652,3.29295015335083,0.33900001645088196
1766408804203662300,5.416662353515625,10.2649507522583,3.24495005607605,0.028050001710653305
1766408804213664800,5.426664794921875,10.222050666809082,3.075000047683716,-0.4549500346183777
1766408804228668700,5.441668701171875,10.665000915527344,2.854950189590454,-0.9940500259399414
1766408804243672300,5.45667236328125,11.212950706481934,2.6200501918792725,-1.39395010471344
1766408804258676200,5.47167626953125,11.62695026397705,2.2729501724243164,-1.585050106048584
1766408804268679000,5.481678955078125,11.919000625610352,1.998000144958496,-1.6110000610351562
1766408804278681300,5.491681396484375,12.22095012664795,1.7700001001358032,-1.5250500440597534
1766408804288683800,5.501683837890625,12.283050537109375,1.6320000886917114,-1.3290001153945923
1766408804298686500,5.5116865234375,12.034050941467285,1.579050064086914,-1.1040000915527344
1766408804308689000,5.52168896484375,11.479050636291504,1.6200001239776611,-0.9630000591278076
1766408804318691600,5.531691650390625,10.7989501953125,1.689000129699707,-0.9079500436782837
1766408804328694000,5.541694091796875,10.168950080871582,1.7080501317977905,-0.9289500713348389
1766408804338696700,5.55169677734375,9.784050941467285,1.7700001001358032,-1.01295006275177
1766408804348699100,5.56169921875,9.597000122070312,1.76295006275177,-1.204050064086914
1766408804358701600,5.57170166015625,9.597000122070312,1.7179501056671143,-1.4100000858306885
1766408804368704000,5.5817041015625,9.44895076751709,1.6789500713348389,-1.5040500164031982
1766408804378706700,5.591706787109375,9.168000221252441,1.758000135421753,-1.3510500192642212
1766408804388709400,5.60170947265625,8.886000633239746,1.8900001049041748,-1.0939500331878662
1766408804398711800,5.6117119140625,8.532000541687012,2.0650501251220703,-0.9120000600814819
1766408804408714500,5.621714599609375,8.179950714111328,2.266050100326538,-0.8640000224113464
1766408804423718100,5.63671826171875,7.768050193786621,2.376000165939331,-0.7830000519752502
1766408804433720600,5.646720458984375,7.591050148010254,2.3550000190734863,-0.7159500122070312
1766408804448724500,5.661724365234375,7.636050224304199,2.2829999923706055,-0.4600500166416168
1766408804458727200,5.67172705078125,7.8760504722595215,2.209050178527832,-0.22500000894069672
1766408804468729600,5.6817294921875,8.191950798034668,2.107950210571289,-0.034050002694129944
1766408804478732300,5.691732177734375,8.469000816345215,2.038950204849243,0.15000000596046448
1766408804488734700,5.701734619140625,8.746950149536133,1.990950107574463,0.3460500240325928
1766408804498737200,5.711737060546875,8.866950035095215,2.035950183868408,0.48705002665519714
1766408804508739800,5.72173974609375,8.689949989318848,2.118000030517578,0.5929500460624695
1766408804518742500,5.731742431640625,8.282999992370605,2.2350001335144043,0.5879999995231628
1766408804533746200,5.74674609375,7.702950477600098,2.4460501670837402,0.625950038433075
1766408804548750000,5.76175,7.617000579833984,2.545950174331665,0.6859500408172607
1766408804558752800,5.771752685546875,7.794000148773193,2.628000020980835,0.778950035572052
1766408804568755200,5.781755126953125,8.175000190734863,2.7400500774383545,0.853950023651123
1766408804578757600,5.791757568359375,8.447999954223633,2.8690500259399414,0.8970000147819519
1766408804593761500,5.806761474609375,8.653950691223145,3.126000165939331,0.736050009727478
1766408804608765400,5.821765380859375,8.887950897216797,3.376950263977051,0.40605002641677856
1766408804623769300,5.836769287109375,9.076950073242188,3.436950206756592,0.23595000803470612
1766408804633771800,5.846771728515625,9.121050834655762,3.4009501934051514,0.30300000309944153
1766408804648775700,5.861775634765625,9.364950180053711,3.3100502490997314,0.6499500274658203
1766408804663779600,5.876779541015625,9.789000511169434,3.2380502223968506,0.9469500184059143
1766408804673782000,5.886781982421875,10.051950454711914,3.312000274658203,1.1430000066757202
1766408804683784400,5.896784423828125,10.132950782775879,3.3070502281188965,1.2610501050949097
1766408804693787100,5.906787109375,10.162050247192383,3.3979501724243164,1.3990501165390015
1766408804703789800,5.916789794921875,10.051950454711914,3.511050224304199,1.456950068473816
1766408804713792300,5.926792236328125,9.925050735473633,3.541950225830078,1.443000078201294
1766408804728796200,5.941796142578125,9.886950492858887,3.4650001525878906,1.3230000734329224
1766408804743799800,5.9567998046875,10.035000801086426,3.175950050354004,1.2390000820159912
1766408804753802500,5.966802490234375,10.392000198364258,3.0199501514434814,1.287000060081482
1766408804763805200,5.97680517578125,10.801050186157227,2.9100000858306885,1.4040000438690186
1766408804773807600,5.9868076171875,11.143950462341309,2.817000150680542,1.519050121307373
1766408804788811500,6.0018115234375,11.445000648498535,2.68500018119812,1.842000126838684
1766408804798814000,6.01181396484375,11.479050636291504,2.635050058364868,2.055000066757202
1766408804808816600,6.021816650390625,11.305950164794922,2.7210001945495605,2.2159500122070312
1766408804823820300,6.0368203125,10.894950866699219,2.994000196456909,2.2639501094818115
1766408804838824200,6.05182421875,10.627050399780273,3.0490500926971436,2.0239500999450684
1766408804848826600,6.06182666015625,10.564050674438477,2.8720500469207764,1.9140000343322754
1766408804858829300,6.071829345703125,10.762950897216797,2.7619500160217285,1.858950138092041
1766408804873833000,6.0868330078125,11.299050331115723,2.53695011138916,1.804050087928772
1766408804888837000,6.101837158203125,11.520000457763672,2.1409502029418945,1.9999500513076782
1766408804903840800,6.1168408203125,11.050050735473633,1.7340000867843628,2.338050127029419
1766408804918844400,6.131844482421875,10.168950080871582,1.4209500551223755,2.4649500846862793
1766408804938849800,6.151849853515625,8.902950286865234,1.4689500331878662,2.644050121307373
1766408804958855000,6.17185498046875,8.010000228881836,1.7700001001358032,2.4720001220703125
1766408804968857300,6.181857421875,7.702950477600098,1.8570001125335693,2.239950180053711
1766408804983861000,6.196861083984375,7.641000270843506,1.8400501012802124,2.0050501823425293
1766408805008867300,6.221867431640625,8.653950691223145,1.4020500183105469,1.7710500955581665
1766408805023871500,6.23687158203125,9.195000648498535,1.270050048828125,1.5169501304626465
1766408805038875100,6.251875244140625,9.5110502243042,1.3440001010894775,1.27305006980896
1766408805048877600,6.261877685546875,9.429000854492188,1.396950125694275,1.01895010471344
1766408805063881500,6.276881591796875,9.034049987792969,1.5000001192092896,0.7480500340461731
1766408805073884200,6.28688427734375,8.722949981689453,1.5310500860214233,0.8440500497817993
1766408805088888000,6.30188818359375,8.392950057983398,1.4500501155853271,1.2490500211715698
1766408805098890500,6.311890380859375,8.284950256347656,1.4449501037597656,1.5649501085281372
1766408805108893000,6.321892822265625,8.248950004577637,1.5670500993728638,1.8349500894546509
1766408805118895600,6.3318955078125,8.098050117492676,1.7509500980377197,1.9140000343322754
1766408805133899500,6.3468994140625,7.828050136566162,2.0719501972198486,1.818000078201294
1766408805148903400,6.3619033203125,7.609950542449951,2.4840002059936523,1.6080000400543213
1766408805158905900,6.37190576171875,7.549950122833252,2.7019500732421875,1.4070000648498535
1766408805168908300,6.381908203125,7.609950542449951,2.8600502014160156,1.2250500917434692
1766408805178911200,6.3919111328125,7.750950336456299,2.908050060272217,1.1190000772476196
1766408805188913700,6.40191357421875,7.99500036239624,2.829000234603882,1.215000033378601
1766408805203917300,6.416917236328125,8.814000129699707,2.7829501628875732,1.555050015449524
1766408805218921500,6.43192138671875,9.361950874328613,2.8410000801086426,1.609950065612793
1766408805228924000,6.441923828125,9.496050834655762,3.0319502353668213,1.5360000133514404
1766408805238926300,6.45192626953125,9.517950057983398,3.207000255584717,1.3590000867843628
1766408805253930200,6.46693017578125,9.559050559997559,3.384000062942505,1.057050108909607
1766408805278936800,6.491936767578125,9.846000671386719,3.4009501934051514,0.778950035572052
1766408805288939300,6.501939208984375,10.057050704956055,3.444000244140625,0.8700000643730164
1766408805298942000,6.51194189453125,10.105050086975098,3.283950090408325,1.059000015258789
1766408805308944400,6.5219443359375,10.026000022888184,3.1210501194000244,1.284000039100647
1766408805323948300,6.5369482421875,9.973050117492676,2.983950138092041,1.4520000219345093
1766408805333950700,6.54695068359375,9.939000129699707,2.8210501670837402,1.4689500331878662
1766408805343953400,6.556953369140625,10.038000106811523,2.7619500160217285,1.4449501037597656
1766408805353955800,6.566955810546875,10.258050918579102,2.7900002002716064,1.5430500507354736
1766408805363958500,6.57695849609375,10.471050262451172,2.776050090789795,1.5450000762939453
1766408805378962200,6.591962158203125,10.689000129699707,2.6040000915527344,1.0399500131607056
1766408805388964900,6.60196484375,10.82805061340332,2.517000198364258,0.5879999995231628
1766408805398967600,6.611967529296875,10.995000839233398,2.4810001850128174,0.1380000114440918
1766408805408970000,6.621969970703125,11.104950904846191,2.5099501609802246,-0.3160500228404999
1766408805423974000,6.636973876953125,11.13900089263916,2.395050048828125,-0.9049500226974487
1766408805433976300,6.646976318359375,11.368950843811035,2.328000068664551,-1.0750499963760376
1766408805443979000,6.65697900390625,11.71095085144043,2.2489500045776367,-1.0030500888824463
1766408805453981700,6.666981689453125,11.991000175476074,2.0719501972198486,-0.9480000734329224
1766408805463984000,6.676984130859375,12.061050415039062,1.8730500936508179,-0.9510000348091125
1766408805478987800,6.69198779296875,11.769001007080078,1.7200500965118408,-0.9409500360488892
1766408805493991700,6.70699169921875,11.259000778198242,1.8450000286102295,-0.8740500211715698
1766408805503994000,6.716994140625,10.806000709533691,1.9549500942230225,-0.9820500612258911
1766408805513997000,6.7269970703125,10.342050552368164,1.9789501428604126,-1.0230000019073486
1766408805523999500,6.73699951171875,10.231050491333008,1.9240500926971436,-1.1020500659942627
1766408805534002000,6.747001953125,10.67400074005127,1.7509500980377197,-1.1610000133514404
1766408805544004600,6.757004638671875,11.092950820922852,1.3950001001358032,-1.2160500288009644
1766408805559008500,6.772008544921875,11.220000267028809,0.999000072479248,-1.0080000162124634
1766408805569011000,6.782010986328125,10.966050148010254,0.9490500688552856,-0.7090500593185425
1766408805579013600,6.792013671875,10.320000648498535,0.9900000691413879,-0.5460000038146973
1766408805589016300,6.802016357421875,9.571050643920898,1.1569499969482422,-0.4810500144958496
1766408805599018800,6.812018798828125,8.905050277709961,1.4110500812530518,-0.4069500267505646
1766408805614022700,6.827022705078125,8.031000137329102,1.7970000505447388,-0.4459500312805176
1766408805624025000,6.837025146484375,7.780050277709961,2.0029501914978027,-0.4459500312805176
1766408805639029200,6.852029296875,7.768050193786621,2.1130499839782715,-0.3520500063896179
1766408805649031700,6.86203173828125,7.782000541687012,2.098050117492676,-0.1270500123500824
1766408805664035600,6.87703564453125,8.055000305175781,1.9720500707626343,0.12300000339746475
1766408805674038000,6.8870380859375,8.290050506591797,1.9519500732421875,0.25995001196861267
1766408805689042000,6.9020419921875,8.122050285339355,2.0239500999450684,0.5899500250816345
1766408805699044400,6.91204443359375,7.903950214385986,2.146050214767456,0.8850000500679016
1766408805709047000,6.922047119140625,7.573950290679932,2.0910000801086426,1.102950096130371
1766408805729052200,6.94205224609375,7.399050235748291,2.1529500484466553,1.078950047492981
1766408805744055800,6.957055908203125,6.576000213623047,2.48895001411438,1.1910001039505005
1766408805754058200,6.967058349609375,7.051950454711914,2.6509501934051514,0.9970500469207764
1766408805764061000,6.97706103515625,7.678950309753418,2.476950168609619,0.6379500031471252
1766408805774063600,6.987063720703125,8.335050582885742,2.455050230026245,0.40605002641677856
1766408805789067500,7.002067626953125,9.091950416564941,2.568000078201294,0.820050060749054
1766408805804071200,7.0170712890625,9.156000137329102,2.2710001468658447,1.366050124168396
1766408805814073900,7.027073974609375,9.112950325012207,2.1700501441955566,1.7590501308441162
1766408805824076300,7.037076171875,9.276000022888184,2.379000186920166,1.9210500717163086
1766408805834079000,7.047078857421875,9.577950477600098,2.68500018119812,1.6560001373291016
1766408805844081700,7.05708154296875,9.97095012664795,2.8909502029418945,1.4350500106811523
1766408805859085300,7.072085205078125,10.927950859069824,3.331050157546997,1.171950101852417
1766408805869088000,7.082087890625,11.172000885009766,3.475050210952759,1.1500500440597534
1766408805879090400,7.09209033203125,11.10300064086914,3.5329501628875732,1.1890500783920288
1766408805889093000,7.102093017578125,10.801050186157227,3.6570000648498535,1.284000039100647
1766408805899095800,7.112095703125,10.401000022888184,3.8170502185821533,1.3399500846862793
1766408805909098500,7.122098388671875,10.01400089263916,3.873000144958496,1.1530500650405884
1766408805919101000,7.132100830078125,9.694950103759766,3.889050245285034,1.062000036239624
1766408805934104800,7.147104736328125,9.682950019836426,3.8460001945495605,0.9829500317573547
1766408805944107300,7.157107177734375,9.961050033569336,3.613950252532959,1.0500000715255737
1766408805954110000,7.16710986328125,10.52400016784668,3.322050094604492,1.270050048828125
1766408805964112600,7.177112548828125,11.046000480651855,3.013050079345703,1.633950114250183
1766408805974115000,7.187114990234375,11.230050086975098,2.7900002002716064,2.02905011177063
1766408805989119000,7.202118896484375,11.131950378417969,2.7880501747131348,2.4220499992370605
1766408805999121400,7.212121337890625,10.983000755310059,2.776050090789795,2.5530002117156982
1766408806009124000,7.2221240234375,10.938000679016113,2.7930002212524414,2.63700008392334
1766408806019126800,7.232126708984375,10.789050102233887,2.91195011138916,2.7090001106262207
1766408806029129200,7.242129150390625,10.38900089263916,3.115950107574463,2.7550501823425293
1766408806039132000,7.2521318359375,9.726000785827637,3.2860500812530518,2.556000232696533
1766408806049134300,7.26213427734375,9.111000061035156,3.375000238418579,2.179949998855591
1766408806064138000,7.277137939453125,9.103950500488281,3.3859500885009766,1.5120000839233398
1766408806074141000,7.287140869140625,9.5110502243042,3.20205020904541,1.2960000038146973
1766408806084143400,7.297143310546875,9.985050201416016,2.9670002460479736,1.2630000114440918
1766408806094146000,7.30714599609375,10.348950386047363,2.68500018119812,1.4689500331878662
1766408806104148500,7.3171484375,10.36305046081543,2.338050127029419,1.8450000286102295
1766408806114151000,7.32715087890625,10.252950668334961,2.1610500812530518,2.247000217437744
1766408806124153600,7.337153564453125,10.09695053100586,2.0620501041412354,2.5099501609802246
1766408806134156300,7.34715625,9.832050323486328,1.9399501085281372,2.5920000076293945
1766408806144158700,7.35715869140625,9.504000663757324,1.8469500541687012,2.6640000343322754
1766408806154161400,7.367161376953125,9.348000526428223,1.821000099182129,2.6520001888275146
1766408806164163800,7.377163818359375,9.22605037689209,1.8540000915527344,2.5530002117156982
1766408806179167700,7.392167724609375,9.175950050354004,1.9429501295089722,2.247000217437744
1766408806189170400,7.40217041015625,9.25005054473877,1.957050085067749,2.0050501823425293
1766408806199172900,7.4121728515625,9.463050842285156,1.9500000476837158,1.7869501113891602
1766408806209175600,7.422175537109375,9.552000045776367,1.9639500379562378,1.6440000534057617
1766408806224179200,7.43717919921875,9.492000579833984,2.038950204849243,1.5810000896453857
1766408806234182000,7.447181884765625,9.46095085144043,2.0149500370025635,1.5070500373840332
1766408806244184600,7.4571845703125,9.184950828552246,1.9210500717163086,1.477950096130371
1766408806259188500,7.4721884765625,8.577000617980957,1.8780001401901245,1.7299500703811646
1766408806269191000,7.48219091796875,8.215950012207031,1.9330500364303589,1.8540000915527344
1766408806284194600,7.497194580078125,7.768050193786621,2.0940001010894775,1.9140000343322754
1766408806294197200,7.507197265625,7.642950534820557,2.179949998855591,1.9690500497817993
1766408806304200000,7.517199951171875,7.617000579833984,2.2110002040863037,2.067000150680542
1766408806314202400,7.527202392578125,7.53795051574707,2.2710001468658447,2.1130499839782715
1766408806324205000,7.537205078125,7.378050327301025,2.4220499992370605,2.0220000743865967
1766408806334207700,7.547207763671875,7.31505012512207,2.704050064086914,1.818000078201294
1766408806349211600,7.562211669921875,7.336950302124023,3.2160000801086426,1.579050064086914
1766408806364215300,7.57721533203125,7.369950294494629,3.541950225830078,1.533000111579895
1766408806374218000,7.587218017578125,7.516050338745117,3.6070501804351807,1.3729500770568848
1766408806384220700,7.597220703125,7.594950199127197,3.6310501098632812,1.078950047492981
1766408806394223000,7.60722314453125,7.591050148010254,3.7890002727508545,0.9040500521659851
1766408806404225800,7.617225830078125,7.689000129699707,4.026000022888184,0.7980000376701355
1766408806434233300,7.6472333984375,8.625,4.174050331115723,0.7770000100135803
1766408806444236000,7.657236083984375,8.9839506149292,4.132950305938721,0.8250000476837158
1766408806454238700,7.66723876953125,9.256950378417969,4.135950088500977,0.76500004529953
1766408806464241200,7.6772412109375,9.583050727844238,4.294050216674805,0.5710500478744507
1766408806474243600,7.68724365234375,9.81195068359375,4.420950412750244,0.4320000112056732
1766408806484246300,7.697246337890625,9.657000541687012,4.485000133514404,0.3960000276565552
1766408806499250200,7.712250244140625,9.195000648498535,4.392000198364258,0.43695002794265747
1766408806509252900,7.7222529296875,9.133049964904785,4.190999984741211,0.3910500109195709
1766408806524256500,7.737256591796875,9.493950843811035,3.8340001106262207,0.26205000281333923
1766408806534259200,7.74725927734375,9.868050575256348,3.6949501037597656,0.25995001196861267
1766408806544262000,7.757261962890625,10.308000564575195,3.484950065612793,0.12600000202655792
1766408806554264600,7.7672646484375,11.023950576782227,3.3070502281188965,-0.07200000435113907
1766408806569268200,7.782268310546875,12.085050582885742,3.00600004196167,-0.3139500021934509
1766408806579270700,7.792270751953125,12.279000282287598,2.776050090789795,-0.47700002789497375
1766408806594274600,7.807274658203125,12.172950744628906,2.6389501094818115,-0.7999500632286072
1766408806604277000,7.817277099609375,12.300000190734863,2.7109501361846924,-0.9079500436782837
1766408806614279700,7.82727978515625,12.472050666809082,2.7900002002716064,-1.1400001049041748
1766408806624282400,7.837282470703125,12.55095100402832,2.914950132369995,-1.4179500341415405
1766408806634285000,7.84728515625,12.039000511169434,2.91195011138916,-1.4269500970840454
1766408806644287500,7.85728759765625,11.122050285339355,2.974950075149536,-1.2190500497817993
1766408806659291100,7.872291015625,9.871950149536133,3.2160000801086426,-1.0699501037597656
1766408806669293800,7.8822939453125,9.367050170898438,3.2190001010894775,-1.207050085067749
1766408806679296500,7.892296630859375,8.907000541687012,3.0319502353668213,-1.1970000267028809
1766408806694300400,7.907300537109375,9.075000762939453,2.68500018119812,-1.0990500450134277
1766408806704302800,7.917302734375,9.706950187683105,2.5200002193450928,-1.2829500436782837
1766408806714305300,7.92730517578125,10.30305004119873,2.2489500045776367,-1.5090000629425049
1766408806729309400,7.942309326171875,10.854000091552734,1.9210500717163086,-1.4869500398635864
1766408806739311900,7.952311767578125,10.732050895690918,1.897050142288208,-1.4940000772476196
1766408806749314600,7.962314453125,10.06605052947998,1.960050106048584,-1.4130001068115234
1766408806759317000,7.97231689453125,9.349950790405273,1.9860000610351562,-0.9790500402450562
1766408806769319700,7.982319580078125,8.71095085144043,1.990950107574463,-0.6040500402450562
1766408806789324800,8.00232470703125,7.489950180053711,1.9519500732421875,-0.36900001764297485
1766408806799327500,8.012327392578126,7.332000255584717,1.957050085067749,-0.22800001502037048
1766408806809330000,8.022329833984376,7.902000427246094,1.9380000829696655,-0.06195000186562538
1766408806824333800,8.037333740234375,9.079950332641602,1.7899501323699951,0.10200000554323196
1766408806834336500,8.04733642578125,9.556050300598145,1.7869501113891602,0.17805001139640808
1766408806849340400,8.06234033203125,9.733050346374512,2.388000011444092,0.3750000298023224
1766408806859342800,8.0723427734375,8.991000175476074,1.9500000476837158,0.08295000344514847
1766408806869345500,8.082345458984374,8.709000587463379,2.1220500469207764,0.07304999977350235
1766408806879348000,8.092347900390624,8.295000076293945,2.367000102996826,0.3460500240325928
1766408806894352000,8.107351806640626,7.333950519561768,2.493000030517578,0.7099500298500061
1766408806904354600,8.1173544921875,6.9559502601623535,2.6989500522613525,0.8820000290870667
1766408806914357000,8.12735693359375,6.8959503173828125,2.7589502334594727,1.0380001068115234
1766408806929361000,8.14236083984375,7.464000225067139,2.6080501079559326,1.1839500665664673
1766408806939363600,8.152363525390625,7.854000568389893,2.5099501609802246,1.2630000114440918
1766408806949366000,8.162365966796875,8.187000274658203,2.5030500888824463,1.2460500001907349
1766408806959368700,8.17236865234375,8.539050102233887,2.580000162124634,1.1239500045776367
1766408806974372900,8.187372802734375,8.970000267028809,2.674950122833252,0.9420000314712524
1766408806984375300,8.197375244140625,9.288000106811523,2.7520501613616943,0.8800500631332397
1766408806994378000,8.2073779296875,9.646950721740723,2.814000129699707,0.8130000233650208
1766408807004380400,8.21738037109375,9.769050598144531,2.7900002002716064,0.8080500364303589
1766408807019384300,8.23238427734375,9.70995044708252,2.9670002460479736,0.7510500550270081
1766408807029387000,8.242386962890626,9.81195068359375,3.157050132751465,0.6190500259399414
1766408807039389400,8.252389404296874,10.051950454711914,3.2430002689361572,0.45600003004074097
1766408807049391900,8.262391845703124,10.06095027923584,3.331050157546997,0.38895002007484436
1766408807059394600,8.27239453125,9.793050765991211,3.5209500789642334,0.527999997138977
1766408807074398200,8.287398193359374,9.480000495910645,3.5400002002716064,0.6690000295639038
1766408807084401200,8.297401123046875,9.325950622558594,3.403050184249878,0.8580000400543213
1766408807094403600,8.307403564453125,9.286050796508789,3.2400002479553223,1.1530500650405884
1766408807104406300,8.31740625,9.604050636291504,3.013050079345703,1.3680000305175781
1766408807114408700,8.32740869140625,9.82395076751709,2.7619500160217285,1.5889500379562378
1766408807124411100,8.3374111328125,9.858000755310059,2.697000026702881,1.8060001134872437
1766408807134413800,8.347413818359374,10.051950454711914,2.805000066757202,1.9069501161575317
1766408807149418000,8.36241796875,10.25100040435791,2.8600502014160156,1.7470500469207764
1766408807159420400,8.37242041015625,10.296000480651855,2.9029500484466553,1.5480000972747803
1766408807169422800,8.3824228515625,10.447050094604492,2.9389500617980957,1.453950047492981
1766408807184426800,8.3974267578125,10.689000129699707,2.8500001430511475,1.1380500793457031
1766408807194429400,8.407429443359375,11.175000190734863,2.63700008392334,0.9400500655174255
1766408807209433300,8.422433349609374,12.103950500488281,2.1559500694274902,0.7099500298500061
1766408807219435800,8.432435791015624,12.661951065063477,1.927950143814087,0.6330000162124634
1766408807234439700,8.447439697265626,12.918000221252441,1.6990500688552856,0.5299500226974487
1766408807244442400,8.4574423828125,12.607050895690918,1.5810000896453857,0.5350500345230103
1766408807254445000,8.467445068359375,12.019950866699219,1.5019500255584717,0.5730000138282776
1766408807264447500,8.477447509765625,11.311050415039062,1.4020500183105469,0.7699500322341919
1766408807274450000,8.487449951171875,10.210050582885742,1.2960000038146973,1.1340000629425049
1766408807284452600,8.49745263671875,8.9839506149292,1.2510000467300415,1.5169501304626465
1766408807294455300,8.507455322265624,8.17199993133545,1.3369500637054443,1.6990500688552856
1766408807309459200,8.522459228515626,8.359050750732422,1.5019500255584717,1.2940500974655151
1766408807319461600,8.532461669921876,9.118050575256348,1.5210000276565552,0.7030500173568726
1766408807329464300,8.54246435546875,9.23805046081543,1.6030501127243042,0.853950023651123
1766408807344468200,8.55746826171875,9.802950859069824,1.4350500106811523,0.10905000567436218
1766408807354471000,8.567470947265624,9.492000579833984,1.3470001220703125,-0.004950000438839197
1766408807364473300,8.577473388671875,9.064949989318848,1.4689500331878662,0.28905001282691956
1766408807374476000,8.58747607421875,8.728050231933594,1.4590500593185425,0.3820500075817108
1766408807384478500,8.597478515625,8.758950233459473,1.1839500665664673,0.39900001883506775
1766408807394481000,8.60748095703125,8.716050148010254,1.002000093460083,0.7069500088691711
1766408807404483600,8.617483642578126,8.521950721740723,0.9370500445365906,0.8970000147819519
1766408807419487500,8.632487548828125,8.716050148010254,0.9109500646591187,1.0909500122070312
1766408807434491400,8.647491455078125,8.982000350952148,0.9420000314712524,1.0399500131607056
1766408807444494000,8.657494140625,9.054000854492188,1.0399500131607056,0.973050057888031
1766408807454496800,8.667496826171876,9.271050453186035,1.227000117301941,0.9130500555038452
1766408807464499200,8.677499267578124,9.456000328063965,1.4449501037597656,0.7960500121116638
1766408807474502000,8.687501953125,9.53700065612793,1.6320000886917114,0.6739500164985657
1766408807494507300,8.70750732421875,9.427050590515137,1.9429501295089722,0.34800001978874207
1766408807504509700,8.717509765625,9.121050834655762,2.1060001850128174,0.38895002007484436
1766408807514512100,8.72751220703125,8.773050308227539,2.209050178527832,0.49695003032684326
1766408807524514800,8.737514892578124,8.520000457763672,2.3929500579833984,0.6930000185966492
1766408807539518700,8.752518798828126,8.440950393676758,2.5699501037597656,1.062000036239624
1766408807549521400,8.762521484375,8.52405071258545,2.605950117111206,1.2580500841140747
1766408807559523800,8.77252392578125,8.697000503540039,2.6509501934051514,1.3639500141143799
1766408807569526500,8.782526611328125,8.745000839233398,2.6730000972747803,1.3680000305175781
1766408807584530400,8.797530517578124,9.109050750732422,2.806950092315674,1.3489500284194946
1766408807594533000,8.807533203125,9.349950790405273,2.8189501762390137,1.453950047492981
1766408807604535600,8.81753564453125,9.286050796508789,2.7690000534057617,1.7130000591278076
1766408807614538000,8.8275380859375,9.085050582885742,2.8410000801086426,1.8400501012802124
1766408807624540700,8.837540771484376,9.160950660705566,3.0349502563476562,1.6819500923156738
1766408807639544600,8.852544677734375,9.319050788879395,3.20205020904541,1.0860000848770142
1766408807649547300,8.86254736328125,9.439050674438477,3.3360002040863037,0.6360000371932983
1766408807659549700,8.8725498046875,9.789000511169434,3.6040501594543457,0.22095000743865967
1766408807669552400,8.882552490234374,10.1089506149292,3.7669501304626465,-0.12000000476837158
1766408807679555000,8.89255517578125,10.404000282287598,3.6910502910614014,-0.3349500298500061
1766408807689557800,8.902557861328125,10.774950981140137,3.513000249862671,-0.32805001735687256
1766408807699560200,8.912560302734375,10.974000930786133,3.3600001335144043,-0.24000000953674316
1766408807709562600,8.922562744140626,10.774950981140137,3.3190500736236572,-0.0580500029027462
1766408807719565300,8.9325654296875,10.53600025177002,3.4459502696990967,0.22395001351833344
1766408807729568000,8.942568115234375,10.132950782775879,3.4699501991271973,0.47505003213882446
1766408807739570700,8.95257080078125,9.724050521850586,3.451050281524658,0.597000002861023
1766408807754574300,8.96757421875,9.5110502243042,3.6469502449035645,0.5809500217437744
1766408807764577000,8.977576904296875,9.57300090789795,3.8200502395629883,0.45600003004074097
1766408807774579700,8.987579833984375,9.670950889587402,3.9180002212524414,0.3340500295162201
1766408807784582400,8.99758251953125,9.601950645446777,3.8490002155303955,0.2569500207901001
1766408807794584800,9.007584716796876,9.427050590515137,3.730950117111206,0.07095000147819519
1766408807804587300,9.017587158203124,9.337950706481934,3.573000192642212,-0.13695000112056732
1766408807814590000,9.02758984375,9.535050392150879,3.375000238418579,-0.37605002522468567
1766408807829594000,9.042593994140624,10.09005069732666,2.986950159072876,-0.675000011920929
1766408807839596500,9.052596435546874,10.380000114440918,2.737950086593628,-0.8670000433921814
1766408807849599000,9.062598876953125,10.722000122070312,2.527050018310547,-0.9289500713348389
1766408807859601700,9.0726015625,10.995000839233398,2.30400013923645,-0.8479500412940979
1766408807869604000,9.08260400390625,11.071950912475586,2.098050117492676,-0.7300500273704529
1766408807879606800,9.092606689453126,11.002050399780273,1.9720500707626343,-0.51705002784729
1766408807889609500,9.102609375,10.990050315856934,1.927950143814087,-0.4020000100135803
1766408807899612200,9.112612060546875,10.945050239562988,1.9309500455856323,-0.42900002002716064
1766408807909614600,9.122614501953125,10.689000129699707,1.9429501295089722,-0.5130000114440918
1766408807919617000,9.132616943359375,10.272000312805176,2.089050054550171,-0.6799500584602356
1766408807929619700,9.14261962890625,9.72195053100586,2.3209500312805176,-0.856950044631958
1766408807939622400,9.152622314453126,9.115950584411621,2.5699501037597656,-1.0200001001358032
1766408807949624800,9.162624755859374,8.551050186157227,2.7810001373291016,-1.1400001049041748
1766408807959627500,9.17262744140625,8.079000473022461,2.9200501441955566,-1.374000072479248
1766408807969630000,9.1826298828125,7.726950168609619,2.6950502395629883,-1.7959500551223755
1766408807979632600,9.192632568359375,7.753050327301025,3.1780500411987305,-1.741050124168396
1766408807989634000,9.202634033203125,7.842000484466553,3.5329501628875732,-1.2120000123977661
1766408808044649700,9.257649658203125,9.232950210571289,2.9770500659942627,-0.8880000710487366
1766408808054652200,9.267652099609375,9.642000198364258,2.9599502086639404,-0.9409500360488892
1766408808064654600,9.277654541015625,9.753000259399414,2.946000099182129,-1.0030500888824463
1766408808074657300,9.2876572265625,9.589950561523438,3.0109500885009766,-0.9289500713348389
1766408808084660000,9.297659912109374,9.27405071258545,3.037050247192383,-0.7330500483512878
1766408808094662700,9.30766259765625,8.872050285339355,3.0109500885009766,-0.5680500268936157
1766408808104665000,9.3176650390625,8.508000373840332,2.986950159072876,-0.4600500166416168
1766408808114667800,9.327667724609375,8.353950500488281,3.025050163269043,-0.32805001735687256
1766408808124670500,9.33767041015625,8.371050834655762,3.1330502033233643,-0.286950021982193
1766408808134673200,9.347673095703126,8.42400074005127,3.1900501251220703,-0.24705001711845398
1766408808149676800,9.3626767578125,8.275050163269043,3.2479500770568848,-0.19395001232624054
1766408808164680700,9.3776806640625,8.206049919128418,3.424950122833252,-0.2989500164985657
1766408808174683400,9.387683349609375,8.191950798034668,3.5179500579833984,-0.5010000467300415
1766408808189687300,9.402687255859375,8.329950332641602,3.504000186920166,-0.6469500064849854
1766408808209692400,9.4226923828125,8.51205062866211,3.484950065612793,-0.6990000605583191
1766408808219695000,9.432695068359376,8.521950721740723,3.516000270843506,-0.687000036239624
1766408808229697500,9.442697509765624,8.35200023651123,3.6690001487731934,-0.7140000462532043
1766408808239700200,9.4527001953125,8.08395004272461,3.8680500984191895,-0.6490500569343567
1766408808249703000,9.462702880859375,7.854000568389893,3.9559502601623535,-0.48405003547668457
1766408808259705300,9.472705322265625,7.5360002517700195,3.9900002479553223,-0.3330000042915344
1766408808269707800,9.482707763671876,7.519050121307373,4.110000133514404,-0.27300000190734863
1766408808279710500,9.49271044921875,7.942950248718262,4.276950359344482,-0.16500000655651093
1766408808289713200,9.502713134765624,8.314050674438477,4.308000087738037,-0.1489500105381012
1766408808299715800,9.5127158203125,8.425950050354004,4.318050384521484,-0.19905000925064087
1766408808309709800,9.522709716796875,9.955950736999512,4.195950031280518,0.10695000737905502
1766408808319721000,9.532720947265625,11.613000869750977,2.68500018119812,-2.353950023651123
1766408808339726000,9.55272607421875,9.820050239562988,5.158050060272217,0.07800000160932541
1766408808349728800,9.562728759765625,10.581000328063965,4.432950019836426,-0.26100000739097595
1766408808359731200,9.572731201171875,10.825050354003906,3.4650001525878906,0.23295001685619354
1766408808369734000,9.58273388671875,11.055000305175781,3.1210501194000244,0.8890500664710999
1766408808379736600,9.592736572265625,10.84695053100586,3.085050106048584,1.1620500087738037
1766408808389739300,9.6027392578125,10.738950729370117,2.8189501762390137,1.366050124168396
1766408808399741700,9.61274169921875,10.758000373840332,2.8530001640319824,1.5810000896453857
1766408808409744100,9.622744140625,10.897050857543945,3.15405011177063,1.6219500303268433
1766408808424748300,9.637748291015624,10.2649507522583,3.3000001907348633,1.533000111579895
1766408808434751000,9.6477509765625,10.11405086517334,3.5470502376556396,1.2889500856399536
1766408808449754600,9.662754638671874,10.417950630187988,3.145050048828125,1.1770501136779785
1766408808459757300,9.67275732421875,10.914000511169434,2.908050060272217,0.8800500631332397
1766408808469759700,9.682759765625,11.359050750732422,2.6080501079559326,0.9799500703811646
1766408808479762400,9.692762451171875,11.754000663757324,2.3209500312805176,1.0500000715255737
1766408808494766300,9.707766357421875,12.180000305175781,1.8780001401901245,1.078950047492981
1766408808504769000,9.71776904296875,12.544050216674805,1.5619500875473022,1.1050500869750977
1766408808514771500,9.727771484375,12.547050476074219,1.3270500898361206,1.2490500211715698
1766408808524774100,9.737774169921876,11.733000755310059,1.3180500268936157,1.5289500951766968
1766408808534776800,9.74777685546875,10.891950607299805,1.5979501008987427,1.3750500679016113
1766408808549780700,9.76278076171875,9.109050750732422,2.39805006980896,1.1340000629425049
1766408808559783200,9.772783203125,8.290050506591797,2.3519999980926514,0.7429500222206116
1766408808574787000,9.787787109375,7.2360005378723145,2.6800501346588135,0.8680500388145447
1766408808584789800,9.797789794921876,7.027950286865234,2.707050085067749,0.8989500403404236
1766408808599793700,9.812793701171875,8.046000480651855,1.7730001211166382,1.3780500888824463
1766408808609796000,9.822796142578126,8.497950553894043,1.4350500106811523,1.1740500926971436
1766408808619798800,9.832798828125,8.620050430297852,1.6789500713348389,0.9469500184059143
1766408808629801500,9.842801513671875,9.175950050354004,1.864050030708313,1.3060500621795654
1766408808639804200,9.85280419921875,8.946000099182129,1.9639500379562378,2.0460000038146973
1766408808649806600,9.862806640625,8.359050750732422,4.426050186157227,0.6379500031471252
1766408808659809300,9.872809326171875,8.62695026397705,4.212000370025635,-0.5700000524520874
1766408808669811700,9.882811767578126,9.331050872802734,2.1630001068115234,-0.21105000376701355
1766408808679814400,9.892814453125,10.344000816345215,1.5000001192092896,0.39900001883506775
1766408808689817000,9.902817138671875,10.135950088500977,1.4740500450134277,1.0399500131607056
1766408808699819500,9.912819580078125,9.298050880432129,1.804050087928772,1.327950119972229
1766408808714823700,9.92782373046875,9.118050575256348,2.4019501209259033,0.8850000500679016
1766408808724826000,9.937826171875,8.92905044555664,2.2950000762939453,1.1839500665664673
1766408808739830000,9.952830078125,8.740050315856934,2.3830502033233643,1.3540500402450562
1766408808754834000,9.967833984375,8.251049995422363,2.4310500621795654,1.0740000009536743
1766408808769838000,9.982838134765625,8.12505054473877,2.7400500774383545,0.9589500427246094
1766408808784841700,9.997841796875,8.098050117492676,2.817000150680542,1.0069500207901
1766408808799845600,10.012845703125,8.620050430297852,2.8189501762390137,1.1980500221252441
1766408808819851000,10.03285107421875,9.508050918579102,2.805000066757202,1.2769500017166138
1766408808839856000,10.052856201171876,9.595050811767578,3.412950277328491,0.736050009727478
1766408808854860000,10.067860107421875,9.075000762939453,3.6690001487731934,0.597000002861023
1766408808869864000,10.082864013671875,8.884050369262695,3.5059502124786377,1.075950026512146
1766408808884867800,10.097867919921875,9.043950080871582,3.207000255584717,1.5259500741958618
1766408808934880800,10.147880859375,8.67495059967041,3.5779502391815186,1.2049500942230225
1766408808944883200,10.15788330078125,8.034000396728516,3.561000108718872,0.7630500197410583
1766408808959887400,10.172887451171874,8.730000495910645,4.063950061798096,0.9760500192642212
1766408808999897900,10.21289794921875,9.951000213623047,3.220950126647949,0.3840000033378601
1766408809014901800,10.22790185546875,10.717050552368164,2.854950189590454,0.609000027179718
1766408809029905400,10.242905517578125,10.969050407409668,2.877000093460083,0.2650500237941742
1766408809044909300,10.257909423828124,11.011950492858887,2.9670002460479736,0.11100000888109207
1766408809054912000,10.267912109375,10.830000877380371,2.866950035095215,-0.012000000104308128
1766408809064914700,10.277914794921875,10.617000579833984,2.8500001430511475,-0.26805001497268677
1766408809089921000,10.302921142578125,10.813050270080566,2.998950242996216,-0.7999500632286072
1766408809104925200,10.31792529296875,10.300950050354004,2.8650002479553223,-1.0150500535964966
1766408809114927600,10.327927734375,9.742950439453125,2.953050136566162,-1.081950068473816
1766408809124930300,10.337930419921875,9.348000526428223,3.1810500621795654,-1.3189500570297241
1766408809139934200,10.352934326171875,8.97705078125,3.1969501972198486,-1.7620500326156616
1766408809159939300,10.372939208984375,9.415050506591797,2.6730000972747803,-1.576050043106079
1766408809169942000,10.38294189453125,10.105050086975098,2.323050022125244,-1.4299501180648804
1766408809179944700,10.39294482421875,10.927950859069824,2.1130499839782715,-1.3840500116348267
1766408809194948600,10.407948486328126,11.982000350952148,1.9069501161575317,-1.2600001096725464
1766408809219955000,10.432954833984375,11.970000267028809,1.4760000705718994,-0.9460500478744507
1766408809234958800,10.447958740234375,10.7989501953125,1.67205011844635,-1.3240500688552856
1766408809244961500,10.45796142578125,9.822000503540039,1.7680500745773315,-1.4970000982284546
1766408809254964200,10.467964111328126,8.919000625610352,1.9210500717163086,-1.6230000257492065
1766408809264966700,10.477966552734374,8.292000770568848,1.9789501428604126,-1.7310000658035278
1766408809284971800,10.4979716796875,7.809000492095947,2.1439499855041504,-1.7100000381469727
1766408809294974500,10.507974365234375,7.741950511932373,2.2110002040863037,-1.6309500932693481
1766408809304977200,10.51797705078125,7.639050483703613,2.31600022315979,-1.516050100326538
1766408809314979800,10.527979736328126,7.713000297546387,2.368950128555298,-1.432050108909607
1766408809324982300,10.537982177734374,8.0910005569458,2.3110501766204834,-1.3819500207901
1766408809334985000,10.54798486328125,8.632050514221191,2.1529500484466553,-1.321950078010559
1766408809344987600,10.557987548828125,9.24000072479248,1.8760501146316528,-1.1929500102996826
1766408809359991600,10.572991455078125,9.678000450134277,1.6050000190734863,-1.0440000295639038
1766408809369994200,10.582994140625,9.53700065612793,1.633950114250183,-1.144950032234192
1766408809379997000,10.592996826171875,9.394050598144531,1.7320500612258911,-1.2690000534057617
1766408809395000800,10.608000732421875,9.343050003051758,1.8229501247406006,-1.2090001106262207
1766408809405003300,10.618003173828125,9.26400089263916,1.960050106048584,-1.0900501012802124
1766408809415006000,10.628005859375,9.427050590515137,2.01705002784729,-0.8500500321388245
1766408809430010000,10.643010009765625,9.577950477600098,2.095950126647949,-0.5250000357627869
1766408809440012500,10.653012451171875,9.405000686645508,2.179949998855591,-0.4050000309944153
1766408809450015200,10.66301513671875,9.031949996948242,2.485950231552124,-0.6109500527381897
1766408809465019000,10.678018798828125,8.589000701904297,2.2800002098083496,-0.25200000405311584
1766408809475021800,10.688021728515626,8.416950225830078,2.227950096130371,-0.13905000686645508
1766408809490025700,10.703025634765625,8.220000267028809,2.4120001792907715,-0.2970000207424164
1766408809500028200,10.713028076171875,8.392950057983398,2.5129501819610596,-0.3160500228404999
1766408809515032300,10.7280322265625,8.914950370788574,2.635050058364868,-0.40005001425743103
1766408809525035000,10.738034912109375,9.211950302124023,2.616000175476074,-0.4240500330924988
1766408809535037400,10.748037353515626,9.391050338745117,2.6539502143859863,-0.4740000367164612
1766408809545040100,10.7580400390625,9.409950256347656,2.7109501361846924,-0.6150000095367432
1766408809560044000,10.7730439453125,9.352950096130371,2.794950246810913,-0.6850500106811523
1766408809570046700,10.783046630859374,9.316950798034668,2.8090500831604004,-0.6180000305175781
1766408809585050400,10.79805029296875,9.364950180053711,2.6680500507354736,-0.48900002241134644
1766408809595053000,10.808052978515626,9.528000831604004,2.632050037384033,-0.44805002212524414
1766408809605055700,10.8180556640625,9.304950714111328,2.635050058364868,-0.38805001974105835
1766408809615058400,10.828058349609375,9.22095012664795,3.0199501514434814,-0.6439500451087952
1766408809630062300,10.843062255859374,9.47700023651123,3.312000274658203,-0.5509500503540039
1766408809645066200,10.858066162109376,9.874950408935547,3.2860500812530518,-0.43800002336502075
1766408809655068700,10.868068603515624,10.105050086975098,3.3409502506256104,-0.4410000145435333
1766408809665071400,10.8780712890625,10.155000686645508,3.4300501346588135,-0.43095001578330994
1766408809675074000,10.888073974609375,9.939000129699707,3.451050281524658,-0.4020000100135803
1766408809685076700,10.89807666015625,9.523050308227539,3.5400002002716064,-0.2970000207424164
1766408809700080600,10.91308056640625,9.20205020904541,3.7380001544952393,-0.559950053691864
1766408809715084300,10.928084228515624,8.97705078125,3.432000160217285,-0.20400001108646393
1766408809725087200,10.938087158203125,8.863950729370117,3.3480000495910645,-0.024000000208616257
1766408809735089700,10.948089599609375,8.716050148010254,3.3790502548217773,0.10200000554323196
1766408809750093600,10.963093505859375,9.124950408935547,3.172950267791748,0.0970500037074089
1766408809760096300,10.97309619140625,9.678000450134277,3.7260000705718994,-0.40005001425743103
1766408809775100200,10.98810009765625,10.08495044708252,3.873000144958496,-0.8500500321388245
1766408809795105500,11.00810546875,9.195000648498535,4.1170501708984375,-1.0249500274658203
1766408809805108200,11.018108154296876,8.806950569152832,4.231950283050537,-0.9600000381469727
1766408809815110700,11.028110595703126,8.785050392150879,3.0610501766204834,0.17595000565052032
1766408809825113300,11.03811328125,9.166050910949707,3.015000104904175,1.0740000009536743
1766408809835116000,11.048115966796875,9.232950210571289,3.6979501247406006,0.4630500078201294
1766408809845118700,11.05811865234375,9.26205062866211,4.2870001792907715,-0.673050045967102
1766408809855121200,11.06812109375,9.070050239562988,4.492950439453125,-1.1640000343322754
1766408809865123800,11.078123779296876,9.025050163269043,4.617000102996826,-1.0750499963760376
1766408809875126800,11.088126708984374,9.355050086975098,4.780050277709961,-1.276050090789795
1766408809890130400,11.10313037109375,9.565950393676758,4.938000202178955,-1.543950080871582
1766408809905134600,11.118134521484375,9.456000328063965,4.549950122833252,-0.8290500640869141
1766408809915137300,11.12813720703125,9.223950386047363,4.369950294494629,-0.31905001401901245
1766408809925139700,11.1381396484375,8.986050605773926,4.1170501708984375,0.11100000888109207
1766408809940143900,11.153143798828125,9.325950622558594,3.643050193786621,0.4630500078201294
1766408809955147800,11.168147705078125,10.006050109863281,3.394050121307373,0.3630000054836273
1766408809965150500,11.178150390625,10.473000526428223,3.394050121307373,0.11595000326633453
1766408809980154600,11.193154541015625,10.951950073242188,3.160950183868408,0.06300000101327896
1766408809990157000,11.203156982421875,11.143950462341309,2.7589502334594727,0.23295001685619354
1766408810000159700,11.21315966796875,11.247000694274902,2.3020501136779785,0.6169500350952148
1766408810010162400,11.223162353515624,11.09595012664795,1.9240500926971436,1.045050024986267
1766408810025166300,11.238166259765626,10.540050506591797,1.6320000886917114,1.426050066947937
1766408810035169000,11.2481689453125,10.155000686645508,1.6600500345230103,1.4110500812530518
1766408810045171700,11.258171630859374,9.717000007629395,1.7970000505447388,1.2559500932693481
1766408810055174400,11.26817431640625,9.172950744628906,2.047950029373169,1.078950047492981
1766408810065177000,11.278177001953125,8.752050399780273,2.3430001735687256,0.8080500364303589
1766408810080181000,11.293180908203125,8.493000030517578,2.6830501556396484,0.4990500211715698
1766408810090183700,11.30318359375,8.308950424194336,2.848050117492676,0.4230000078678131
1766408810105187600,11.3181875,8.296950340270996,3.0010502338409424,0.5490000247955322
1766408810115190300,11.328190185546875,8.295000076293945,3.003000259399414,0.6720000505447388
1766408810125192700,11.338192626953125,8.380949974060059,3.0109500885009766,0.7240500450134277
1766408810135195600,11.348195556640626,8.473950386047363,3.043950080871582,0.597000002861023
1766408810150199600,11.363199462890625,8.505000114440918,3.15405011177063,0.29100000858306885
1766408810160202200,11.3732021484375,8.433000564575195,3.2760002613067627,0.05595000088214874
1766408810170205000,11.383204833984376,8.36400032043457,3.504000186920166,-0.19395001232624054
1766408810185208800,11.398208740234375,8.37600040435791,3.655050277709961,-0.2350500077009201
1766408810195211500,11.40821142578125,8.242050170898438,3.5490002632141113,-0.012000000104308128
1766408810210215400,11.42321533203125,8.019000053405762,3.4150502681732178,0.37905001640319824
1766408810225219600,11.438219482421875,8.10300064086914,3.184950113296509,0.6280500292778015
1766408810235222000,11.448221923828125,8.455050468444824,2.974950075149536,0.7030500173568726
1766408810245225000,11.458224853515626,8.97195053100586,2.7880501747131348,0.6280500292778015
1766408810255227600,11.4682275390625,9.300000190734863,2.7019500732421875,0.4849500358104706
1766408810265230000,11.47822998046875,9.328950881958008,2.7520501613616943,0.3720000088214874
1766408810280234000,11.49323388671875,8.910000801086426,3.1090500354766846,0.17805001139640808
1766408810290237000,11.50323681640625,8.563050270080566,3.3859500885009766,-0.012000000104308128
1766408810300239600,11.513239501953125,8.315999984741211,3.4870500564575195,-0.21300001442432404
1766408810310242000,11.523241943359375,8.377950668334961,3.375000238418579,-0.1770000010728836
1766408810320244700,11.53324462890625,8.794950485229492,3.207000255584717,0.034950003027915955
1766408810335249000,11.548248779296875,9.243000030517578,2.986950159072876,0.35805001854896545
1766408810350252800,11.563252685546875,9.352950096130371,2.983950138092041,0.583050012588501
1766408810365256700,11.578256591796874,8.967000007629395,3.4200000762939453,0.16905000805854797
1766408810380260900,11.5932607421875,8.569950103759766,3.954000234603882,-0.36900001764297485
1766408810390263600,11.603263671875,8.590950012207031,4.147950172424316,-0.5890500545501709
1766408810400266000,11.613265869140625,8.872050285339355,4.279950141906738,-0.6250500082969666
1766408810410269000,11.62326904296875,8.979000091552734,4.282050132751465,-0.42900002002716064
1766408810420271600,11.633271728515625,8.979000091552734,4.228950023651123,-0.16500000655651093
1766408810435275500,11.648275634765625,8.63700008392334,4.438050270080566,0.022950001060962677
1766408810445278200,11.6582783203125,8.268000602722168,4.564050197601318,-0.39795002341270447
1766408810455281000,11.668281005859376,7.957050323486328,5.002950191497803,-0.8790000677108765
1766408810465283600,11.67828369140625,7.888050556182861,5.248950481414795,-1.152000069618225
1766408810475286000,11.6882861328125,8.134050369262695,4.933050155639648,-0.970050036907196
1766408810490290000,11.7032900390625,9.055950164794922,3.9160501956939697,0.010950000956654549
1766408810500292900,11.71329296875,9.997050285339355,3.2190001010894775,0.7429500222206116
1766408810515296800,11.728296875,11.21505069732666,2.2420501708984375,1.6360501050949097
1766408810525299500,11.738299560546874,11.902950286865234,1.8880500793457031,1.8469500541687012
1766408810535302100,11.74830224609375,12.244950294494629,1.7080501317977905,1.9090501070022583
1766408810545304800,11.758304931640625,12.409950256347656,1.6429500579833984,1.8109500408172607
1766408810555307500,11.7683076171875,12.421950340270996,1.5430500507354736,1.7059500217437744
1766408810570311400,11.7833115234375,12.030000686645508,2.1100502014160156,0.8509500622749329
1766408810585315300,11.7983154296875,11.12700080871582,3.5590500831604004,-0.7900500297546387
1766408810600319500,11.813319580078126,10.702950477600098,3.7980000972747803,-1.2019500732421875
1766408810610322200,11.823322265625,10.075950622558594,3.68595027923584,-0.9670500755310059
1766408810620324600,11.83332470703125,9.45300006866455,3.730950117111206,-0.9390000700950623
1766408810630327600,11.84332763671875,8.742000579833984,3.712050199508667,-1.0849500894546509
1766408810640330200,11.853330322265625,8.212950706481934,3.4200000762939453,-1.0200001001358032
1766408810650333000,11.8633330078125,7.966950416564941,3.1710002422332764,-0.9340500235557556
1766408810660335600,11.873335693359374,7.921050548553467,2.956050157546997,-0.8740500211715698
1766408810675339500,11.888339599609376,8.413949966430664,2.7829501628875732,-0.9720000624656677
1766408810685342200,11.89834228515625,9.018000602722168,2.6490001678466797,-1.2880500555038452
1766408810700346400,11.913346435546876,10.045050621032715,2.575050115585327,-1.9180500507354736
1766408810710349000,11.92334912109375,10.91100025177002,2.1030001640319824,-1.9900500774383545
1766408810725353000,11.93835302734375,12.075000762939453,1.5259500741958618,-1.7790000438690186
1766408810740357000,11.953357177734375,12.195000648498535,1.4380500316619873,-1.3860000371932983
1766408810750359800,11.96335986328125,11.508000373840332,1.4449501037597656,-1.204050064086914
1766408810760362200,11.9733623046875,10.696050643920898,1.4140501022338867,-1.1610000133514404
1766408810770365000,11.983364990234374,10.033050537109375,1.117050051689148,-0.9820500612258911
1766408810785369000,11.998369140625,9.244950294494629,1.7989500761032104,-1.3429501056671143
1766408810795371800,12.008371826171874,8.734950065612793,2.287950038909912,-1.9729501008987427
1766408810805374500,12.01837451171875,8.404950141906738,2.6800501346588135,-2.622000217437744
1766408810815377000,12.028376953125,8.167950630187988,2.9389500617980957,-2.9569501876831055
1766408810825379800,12.0383798828125,7.930950164794922,3.2280001640319824,-3.0580501556396484
1766408810835382500,12.048382568359376,7.492950439453125,3.315000057220459,-2.8540501594543457
1766408810845385000,12.058385009765624,7.210050106048584,3.1900501251220703,-2.3989500999450684
1766408810855388000,12.068387939453125,7.2960004806518555,3.0510001182556152,-1.9300501346588135
1766408810865390600,12.078390625,7.617000579833984,2.845050096511841,-1.6980000734329224
1766408810875393300,12.088393310546875,8.11500072479248,2.725950241088867,-1.590000033378601
1766408810890397200,12.103397216796875,9.037050247192383,2.6010000705718994,-1.3620001077651978
1766408810900400000,12.113400146484375,9.619050025939941,2.485950231552124,-1.3480501174926758
1766408810910402600,12.123402587890626,9.894000053405762,2.455050230026245,-1.4220000505447388
1766408810920405500,12.133405517578124,9.730950355529785,2.5489501953125,-1.5180001258850098
1766408810930408200,12.143408203125,9.100950241088867,2.7499501705169678,-1.5130500793457031
1766408810940411000,12.153410888671875,8.40195083618164,2.8620002269744873,-1.4269500970840454
1766408810950413300,12.163413330078125,7.927950382232666,2.884050130844116,-1.3960500955581665
1766408810960416000,12.173416015625,7.741950511932373,2.9670002460479736,-1.4179500341415405
1766408810970419000,12.1834189453125,7.797000408172607,3.115950107574463,-1.4580000638961792
1766408810985422800,12.1984228515625,8.14905071258545,3.384000062942505,-1.7190001010894775
1766408810995425500,12.208425537109376,8.247000694274902,3.5280001163482666,-1.8769501447677612
1766408811005428200,12.21842822265625,8.12505054473877,3.670950174331665,-1.9830000400543213
1766408811015431000,12.228430908203125,8.038050651550293,3.8869502544403076,-2.2270500659942627
1766408811025433600,12.23843359375,7.942950248718262,4.120950222015381,-2.464050054550171
1766408811040437800,12.253437744140625,7.642950534820557,4.179000377655029,-2.4780001640319824
1766408811050440200,12.263440185546875,7.713000297546387,4.120950222015381,-2.3610000610351562
1766408811060443000,12.27344287109375,7.867950439453125,4.038000106811523,-2.136000156402588
1766408811070445600,12.283445556640626,7.987950325012207,3.9160501956939697,-1.9009500741958618
1766408811080448300,12.2934482421875,8.164950370788574,3.9060001373291016,-1.8049501180648804
1766408811090451000,12.303450927734374,8.260950088500977,3.894000291824341,-1.7620500326156616
1766408811100453600,12.31345361328125,8.242050170898438,3.829050064086914,-1.53000009059906
1766408811115457800,12.328457763671874,8.665950775146484,3.8490002155303955,-1.446000099182129
1766408811125460500,12.33846044921875,8.902950286865234,3.95205020904541,-1.6549500226974487
1766408811135463200,12.348463134765625,9.103950500488281,4.107000350952148,-1.9369500875473022
1766408811145465600,12.358465576171875,9.592050552368164,4.2870001792907715,-2.241000175476074
1766408811155468500,12.368468505859376,9.69795036315918,4.40595006942749,-2.196000099182129
1766408811165471200,12.37847119140625,6.508050441741943,5.527050495147705,-2.512050151824951
1766408811180475100,12.39347509765625,8.797050476074219,4.44195032119751,-2.212050199508667
1766408811190477800,12.403477783203124,9.42495059967041,4.39394998550415,-1.9320000410079956
1766408811200480500,12.41348046875,10.56705093383789,4.129050254821777,-1.4179500341415405
1766408811210483200,12.423483154296875,11.104950904846191,4.042050361633301,-1.3620001077651978
1766408811220486000,12.43348583984375,11.329950332641602,3.9130501747131348,-1.662000060081482
1766408811230488800,12.44348876953125,10.684050559997559,3.8869502544403076,-1.437000036239624
1766408811240491300,12.4534912109375,9.646950721740723,4.195950031280518,-1.0849500894546509
1766408811250494000,12.463493896484374,8.875950813293457,4.324950218200684,-1.204050064086914
1766408811260496600,12.47349658203125,8.460000038146973,4.380000114440918,-1.2430500984191895
1766408811270499600,12.48349951171875,8.479050636291504,4.440000057220459,-1.1899501085281372
1766408811285503500,12.49850341796875,9.075000762939453,4.488000392913818,-0.9600000381469727
1766408811295506000,12.508505859375,9.562950134277344,4.435050010681152,-0.7810500264167786
1766408811305508900,12.5185087890625,9.784050941467285,4.243950366973877,-0.5700000524520874
1766408811315511600,12.528511474609376,10.021050453186035,4.138050079345703,-0.38100001215934753
1766408811325514200,12.53851416015625,10.279050827026367,4.011000156402588,-0.4120500087738037
1766408811335517000,12.548516845703125,10.396950721740723,3.7740001678466797,-0.4909500181674957
1766408811350521000,12.56352099609375,10.593000411987305,3.1279501914978027,-0.35895001888275146
1766408811365525000,12.57852490234375,10.89900016784668,2.568000078201294,-0.3520500063896179
1766408811380529200,12.593529052734375,11.443050384521484,2.1700501441955566,-0.2760000228881836
1766408811390531600,12.603531494140626,11.833050727844238,1.651050090789795,-0.0499500036239624
1766408811400534300,12.6135341796875,11.95305061340332,1.117050051689148,0.3240000009536743
1766408811410537000,12.623536865234374,11.998050689697266,0.5419500470161438,1.0350000858306885
1766408811420539600,12.63353955078125,11.677950859069824,0.31995001435279846,1.6030501127243042
1766408811435543800,12.648543701171874,10.468050956726074,0.3940500319004059,1.9429501295089722
1766408811445546200,12.658546142578125,9.451050758361816,0.6210000514984131,2.0149500370025635
1766408811455549200,12.668549072265625,8.66100025177002,0.9520500302314758,1.8709501028060913
1766408811465552000,12.6785517578125,8.184000015258789,1.339050054550171,1.4110500812530518
1766408811475554600,12.688554443359376,8.055000305175781,1.6870501041412354,0.8419500589370728
1766408811485557000,12.698556884765624,8.092950820922852,1.8019500970840454,0.4849500358104706
1766408811495560000,12.708559814453125,8.617950439453125,2.0239500999450684,0.1570500135421753
1766408811505562600,12.718562744140625,9.085050582885742,2.0940001010894775,0.013050000183284283
1766408811515565300,12.7285654296875,9.283050537109375,2.0530500411987305,0.13005000352859497
1766408811525567700,12.738567626953126,9.219000816345215,1.9860000610351562,0.3079500198364258
1766408811535570400,12.7485703125,9.130050659179688,1.8730500936508179,0.4540500342845917
1766408811550574600,12.76357470703125,9.192000389099121,1.7680500745773315,0.48000001907348633
1766408811560577300,12.773577392578124,9.310050010681152,1.7200500965118408,0.4440000355243683
1766408811570580000,12.783580078125,9.433950424194336,1.7389501333236694,0.37905001640319824
1766408811580582700,12.793582763671875,9.468000411987305,1.8349500894546509,0.25995001196861267
1766408811590585300,12.80358544921875,9.427050590515137,1.9260001182556152,0.2530499994754791
1766408811605589500,12.818589599609375,9.22800064086914,2.0239500999450684,0.3630000054836273
1766408811615592200,12.82859228515625,9.001049995422363,2.134050130844116,0.3840000033378601
1766408811625595000,12.838594970703125,8.764050483703613,2.224950075149536,0.40605002641677856
1766408811635597600,12.84859765625,8.668050765991211,2.2159500122070312,0.3960000276565552
1766408811645600300,12.858600341796874,8.653950691223145,2.1940500736236572,0.4129500091075897
1766408811655603000,12.86860302734375,8.548050880432129,2.247000217437744,0.42705002427101135
1766408811665605600,12.878605712890625,8.42400074005127,2.307000160217285,0.45600003004074097
1766408811675608300,12.8886083984375,9.646950721740723,2.6389501094818115,0.3750000298023224
1766408811685611000,12.898611083984376,7.6459503173828125,2.299950122833252,-0.016950000077486038
1766408811695613700,12.90861376953125,8.055000305175781,2.8309500217437744,0.41100001335144043
1766408811705616400,12.918616455078125,8.332950592041016,2.9320502281188965,0.15195000171661377
1766408811715619000,12.928619140625,8.581950187683105,3.1060502529144287,-0.22305001318454742
1766408811725621800,12.938621826171875,8.94105052947998,3.1369502544403076,-0.16500000655651093
1766408811735624400,12.94862451171875,9.372000694274902,2.848050117492676,0.16905000805854797
1766408811745627100,12.958627197265624,9.712050437927246,2.4840002059936523,0.6070500016212463
1766408811755629800,12.9686298828125,9.79800033569336,2.31600022315979,1.0330500602722168
1766408811770633700,12.9836337890625,9.865050315856934,2.407050132751465,1.13100004196167
1766408811785638000,12.998637939453126,10.312950134277344,2.6389501094818115,0.6169500350952148
1766408811795640600,13.008640625,10.861050605773926,2.9320502281188965,0.006000000052154064
1766408811805643300,13.018643310546874,11.086050987243652,3.2430002689361572,-0.18495000898838043
1766408811815646000,13.02864599609375,10.861050605773926,3.3190500736236572,0.004050000105053186
1766408811830650000,13.043650146484374,10.321950912475586,3.082050085067749,0.45600003004074097
1766408811840652500,13.053652587890625,9.889050483703613,2.9359500408172607,0.781950056552887
1766408811850655500,13.063655517578125,9.439050674438477,2.893050193786621,1.0830000638961792
1766408811860658000,13.073657958984375,9.063000679016113,2.994000196456909,1.4329500198364258
1766408811870660900,13.083660888671876,8.593950271606445,3.015000104904175,1.5450000762939453
1766408811880663300,13.093663330078124,8.260950088500977,3.0319502353668213,1.5859500169754028
1766408811890666000,13.103666015625,8.182050704956055,3.055950164794922,1.519050121307373
1766408811900668700,13.113668701171875,8.480999946594238,3.043950080871582,1.3230000734329224
1766408811910671400,13.12367138671875,8.91195011138916,2.9410500526428223,1.0950000286102295
1766408811920674000,13.133674072265626,9.303000450134277,2.8429501056671143,0.909000039100647
1766408811930676700,13.1436767578125,9.457950592041016,2.7780001163482666,0.7939500212669373
1766408811940679400,13.153679443359374,9.56100082397461,2.7739500999450684,0.7770000100135803
1766408811950682000,13.16368212890625,9.870000839233398,2.7709500789642334,0.6720000505447388
1766408811960684800,13.173684814453125,10.167000770568848,2.7709500789642334,0.5520000457763672
1766408811975688700,13.188688720703125,10.09695053100586,2.874000072479248,0.5040000081062317
1766408811985691600,13.198691650390625,9.822000503540039,3.123000144958496,0.49695003032684326
1766408811995694000,13.208694091796875,9.586950302124023,3.3670501708984375,0.322050005197525
1766408812005696800,13.21869677734375,9.480000495910645,3.421950101852417,0.13005000352859497
1766408812020701000,13.233700927734375,9.520050048828125,3.475050210952759,-0.2659500241279602
1766408812030703600,13.24370361328125,9.642000198364258,3.3960001468658447,-0.14400000870227814
1766408812040706300,13.253706298828124,9.384000778198242,3.3889501094818115,-0.6390000581741333
1766408812055710200,13.268710205078126,8.934000015258789,3.184950113296509,-1.2330000400543213
1766408812065713000,13.278712890625,8.922000885009766,2.9890501499176025,-1.5730500221252441
1766408812075715600,13.288715576171874,9.328950881958008,2.6899502277374268,-1.6110000610351562
1766408812085718300,13.29871826171875,9.975000381469727,2.1610500812530518,-1.3240500688552856
1766408812105723600,13.3187236328125,11.431050300598145,1.5600000619888306,-0.9390000700950623
1766408812115726300,13.328726318359376,12.204000473022461,1.4830501079559326,-0.999000072479248
1766408812125729000,13.33872900390625,12.949050903320312,1.4830501079559326,-1.141950011253357
1766408812135731700,13.348731689453125,13.37505054473877,1.5360000133514404,-1.2690000534057617
1766408812150736000,13.36373583984375,12.934950828552246,1.2940500974655151,-0.999000072479248
1766408812160738300,13.37373828125,11.898000717163086,1.4760000705718994,-1.0939500331878662
1766408812170741000,13.383740966796875,10.855950355529785,1.7749500274658203,-1.0750499963760376
1766408812180743700,13.39374365234375,9.772050857543945,1.894950032234192,-1.081950068473816
1766408812190746600,13.40374658203125,8.635050773620605,1.8370500802993774,-0.9480000734329224
1766408812200749000,13.4137490234375,7.741950511932373,1.864050030708313,-0.7470000386238098
1766408812210751700,13.423751708984375,7.1449503898620605,1.88100004196167,-0.6850500106811523
1766408812220754400,13.43375439453125,6.778950214385986,1.9620001316070557,-0.742050051689148
1766408812230757000,13.443757080078125,6.592050075531006,2.0239500999450684,-0.8760000467300415
1766408812240759800,13.453759765625,6.68595027923584,2.058000087738037,-0.9120000600814819
1766408812255763700,13.468763671875,7.378050327301025,2.0149500370025635,-1.128000020980835
1766408812265766700,13.4787666015625,8.026050567626953,2.009999990463257,-1.3270500898361206
1766408812280770600,13.4937705078125,8.962950706481934,1.858950138092041,-1.489050030708313
1766408812290773200,13.503773193359375,9.702000617980957,1.7149500846862793,-1.3840500116348267
1766408812300776000,13.51377587890625,10.441950798034668,1.5810000896453857,-1.3170000314712524
1766408812310778600,13.523778564453124,11.308950424194336,1.665000081062317,-1.450950026512146
1766408812320781300,13.53378125,12.022050857543945,1.6960500478744507,-1.543950080871582
1766408812330784000,13.543783935546875,12.154050827026367,1.7340000867843628,-1.6429500579833984
1766408812340786700,13.55378662109375,11.658000946044922,1.8469500541687012,-1.662000060081482
1766408812350789400,13.563789306640626,10.807950973510742,1.960050106048584,-1.437000036239624
1766408812365793500,13.57879345703125,9.45300006866455,2.1529500484466553,-1.081950068473816
1766408812375796200,13.588796142578126,8.788050651550293,2.2420501708984375,-0.9769500494003296
1766408812390800100,13.603800048828125,8.017050743103027,2.284950017929077,-0.8839500546455383
1766408812400802600,13.613802490234375,7.701000213623047,2.376000165939331,-0.8689500689506531
1766408812415806700,13.628806640625,7.617000579833984,2.505000114440918,-1.1539500951766968
1766408812425809400,13.638809326171875,7.674000263214111,2.5489501953125,-1.321950078010559
1766408812435812000,13.64881201171875,7.9069504737854,2.53695011138916,-1.4490001201629639
1766408812445814800,13.658814697265624,8.146050453186035,2.4600000381469727,-1.5280500650405884
1766408812455817500,13.6688173828125,8.299050331115723,2.4100501537323,-1.5799500942230225
1766408812465820200,13.678820068359375,8.457000732421875,2.3710501194000244,-1.5420000553131104
1766408812475822800,13.68882275390625,8.65095043182373,2.328000068664551,-1.4749500751495361
1766408812485825300,13.6988251953125,8.893050193786621,2.259000062942505,-1.3960500955581665
1766408812505830700,13.71883056640625,9.348000526428223,2.176950216293335,-1.3579500913619995
1766408812520834800,13.733834716796874,9.894000053405762,2.3140501976013184,-1.432050108909607
1766408812535838700,13.748838623046876,10.477950096130371,2.407050132751465,-1.5040500164031982
1766408812545841400,13.75884130859375,10.464000701904297,2.505000114440918,-1.4410500526428223
1766408812555844000,13.768843994140624,10.267050743103027,2.628000020980835,-1.360050082206726
1766408812565846800,13.7788466796875,10.006050109863281,2.754000186920166,-1.2720000743865967
1766408812575849500,13.788849365234375,9.822000503540039,2.8879501819610596,-1.1830500364303589
1766408812585852400,13.798852294921875,9.753000259399414,2.965050220489502,-1.2330000400543213
1766408812595854800,13.808854736328126,9.858000755310059,3.0610501766204834,-1.3050000667572021
1766408812605857500,13.818857421875,9.784050941467285,3.1330502033233643,-1.2930001020431519
1766408812615860500,13.828860595703125,9.642000198364258,3.1660501956939697,-1.207050085067749
1766408812625863000,13.83886279296875,9.559050559997559,3.205050230026245,-1.054050087928772
1766408812640867000,13.8538671875,9.456000328063965,3.2880001068115234,-0.984000027179718
1766408812650869800,13.863869873046875,9.42495059967041,3.3630001544952393,-0.9079500436782837
1766408812665873700,13.878873779296875,9.41295051574707,3.4150502681732178,-0.8530500531196594
1766408812675876400,13.88887646484375,9.2160005569458,3.3889501094818115,-0.9030000567436218
1766408812690880500,13.903880615234375,8.91195011138916,3.454050064086914,-0.9270000457763672
1766408812705884400,13.918884521484374,8.742000579833984,3.68595027923584,-1.3000500202178955
1766408812715887000,13.92888720703125,8.773050308227539,3.832050085067749,-1.5730500221252441
1766408812730891000,13.94389111328125,9.243000030517578,3.7600502967834473,-1.6690500974655151
1766408812740894000,13.95389404296875,9.379050254821777,3.504000186920166,-1.4490001201629639
1766408812750896400,13.963896484375,9.432000160217285,3.376950263977051,-1.1929500102996826
1766408812765900300,13.978900390625,9.901050567626953,3.184950113296509,-0.8359500169754028
1766408812775903200,13.9889033203125,10.038000106811523,3.085050106048584,-0.5029500126838684
1766408812790907100,14.0039072265625,10.34595012664795,3.025050163269043,-0.17505000531673431
1766408812805911300,14.018911376953126,10.705950736999512,3.1710002422332764,-0.24195000529289246
1766408812820915200,14.033915283203125,10.713000297546387,3.2310001850128174,-0.4020000100135803
1766408812830918000,14.04391796875,10.564050674438477,3.2280001640319824,-0.32100000977516174
1766408812840920600,14.053920654296874,10.420950889587402,3.1330502033233643,-0.04305000230669975
1766408812850923300,14.06392333984375,10.279050827026367,2.9820001125335693,0.27900001406669617
1766408812865927200,14.07892724609375,10.198050498962402,2.802000045776367,0.820050060749054
1766408812875930000,14.08893017578125,10.195950508117676,2.6989500522613525,1.0500000715255737
1766408812890934000,14.10393408203125,10.152000427246094,2.617950201034546,1.1430000066757202
1766408812905938000,14.11893798828125,9.856050491333008,2.584050178527832,0.9540000557899475
1766408812920942000,14.133942138671875,9.625950813293457,2.565000057220459,0.6550500392913818
1766408812930944800,14.14394482421875,9.528000831604004,2.5009500980377197,0.42705002427101135
1766408812940947500,14.153947509765626,9.481950759887695,2.347050189971924,0.29100000858306885
1766408812955951400,14.168951416015625,9.712050437927246,1.8780001401901245,0.29295000433921814
1766408812965954300,14.178954345703126,10.243050575256348,1.4850000143051147,0.3840000033378601
1766408812975956700,14.188956787109374,10.641000747680664,1.1839500665664673,0.5850000381469727
1766408812985959400,14.19895947265625,10.785000801086426,1.0690500736236572,0.8250000476837158
1766408813000963300,14.21396337890625,10.84005069732666,1.0549499988555908,1.1860500574111938
1766408813010966300,14.22396630859375,10.807950973510742,1.002000093460083,1.4620500802993774
1766408813025970200,14.23897021484375,10.504050254821777,1.0039499998092651,1.828050136566162
1766408813040974000,14.25397412109375,9.930000305175781,1.270050048828125,1.9170000553131104
1766408813050976800,14.263976806640626,9.516000747680664,1.6459500789642334,1.8690000772476196
1766408813065981000,14.27898095703125,8.875950813293457,2.199000120162964,1.7989500761032104
1766408813075983600,14.288983642578126,8.440950393676758,2.3430001735687256,1.7200500965118408
1766408813085986300,14.298986328125,8.12505054473877,2.347050189971924,1.6530001163482666
1766408813095989000,14.308989013671875,7.897050380706787,2.307000160217285,1.5600000619888306
1766408813105991400,14.318991455078125,7.684050559997559,2.4649500846862793,1.8829500675201416
1766408813120995300,14.333995361328125,7.423050403594971,2.5249500274658203,2.3209500312805176
1766408813135999500,14.34899951171875,7.423050403594971,2.6010000705718994,2.7619500160217285
1766408813146002200,14.359002197265625,7.404000282287598,2.485950231552124,2.946000099182129
1766408813156004900,14.3690048828125,7.432950496673584,2.4000000953674316,3.115950107574463
1766408813171009000,14.384009033203125,7.492950439453125,2.455050230026245,3.5659501552581787
1766408813181011700,14.39401171875,7.471050262451172,2.473950147628784,3.7819502353668213
1766408813196015600,14.409015625,7.437000274658203,2.508000135421753,3.7600502967834473
1766408813206018600,14.4190185546875,7.369950294494629,2.3329501152038574,3.513000249862671
1766408813221022500,14.4340224609375,7.761000156402588,1.8330000638961792,3.138000249862671
1766408813231025000,14.44402490234375,8.37405014038086,1.5670500993728638,3.0079500675201416
1766408813241027800,14.45402783203125,8.938950538635254,1.4590500593185425,3.138000249862671
1766408813256031700,14.46903173828125,9.47700023651123,1.423050045967102,3.375000238418579
1766408813271035600,14.48403564453125,10.155000686645508,1.4299501180648804,3.3889501094818115
1766408813286039800,14.499039794921876,9.918000221252441,1.1910001039505005,2.9290502071380615
1766408813296042500,14.50904248046875,9.865050315856934,1.4970000982284546,2.4820501804351807
1766408813306045200,14.519045166015625,10.380000114440918,2.0410501956939697,2.8690500259399414
1766408813321049300,14.53404931640625,9.183000564575195,1.7230501174926758,3.324000120162964
1766408813331051800,14.5440517578125,9.592050552368164,2.259000062942505,3.1969501972198486
1766408813341054500,14.554054443359375,10.05405044555664,2.496000051498413,3.307950258255005
1766408813351057200,14.56405712890625,9.973050117492676,2.6610000133514404,3.4009501934051514
1766408813361059800,14.574059814453125,9.801000595092773,3.075000047683716,3.492000102996826
1766408813371062500,14.5840625,9.397950172424316,3.433950185775757,3.262050151824951
1766408813381065200,14.594065185546874,8.884050369262695,3.693000078201294,2.7550501823425293
1766408813396069400,14.6090693359375,8.254050254821777,3.9630002975463867,2.4000000953674316
1766408813406072000,14.619072021484374,8.092950820922852,4.090050220489502,2.476950168609619
1766408813421076000,14.634075927734376,8.371050834655762,4.1770501136779785,2.6130001544952393
1766408813431079000,14.644078857421874,8.48805046081543,4.085999965667725,2.5890002250671387
1766408813441081300,14.654081298828125,8.556000709533691,4.0159502029418945,2.5510501861572266
1766408813451084000,14.664083984375,8.608050346374512,4.027950286865234,2.5009500980377197
1766408813466088000,14.679087890625,8.629950523376465,4.243950366973877,2.287950038909912
1766408813481092000,14.694092041015624,8.584050178527832,4.3969502449035645,2.259000062942505
1766408813491094800,14.7040947265625,8.657999992370605,4.228950023651123,2.1750001907348633
1766408813506098700,14.7190986328125,8.578950881958008,3.7960500717163086,2.0149500370025635
1766408813516101400,14.729101318359374,8.641950607299805,3.621000289916992,1.9480501413345337
1766408813526104000,14.73910400390625,8.793000221252441,3.484950065612793,1.894950032234192
1766408813536106800,14.749106689453125,9.094050407409668,3.4300501346588135,1.8139500617980957
1766408813546109400,14.759109375,9.379050254821777,3.3979501724243164,1.6390501260757446
1766408813561113600,14.774113525390625,9.580050468444824,3.2860500812530518,1.4659500122070312
1766408813576117500,14.789117431640625,9.741000175476074,3.05400013923645,1.3729500770568848
1766408813591121700,14.80412158203125,9.832050323486328,3.135000228881836,0.9829500317573547
1766408813606125600,14.81912548828125,10.306050300598145,2.9170501232147217,0.1399500072002411
1766408813616128000,14.8291279296875,10.519050598144531,2.4220499992370605,-0.027000000700354576
1766408813626131000,14.839130859375,11.356950759887695,2.448000192642212,-0.031050002202391624
1766408813636133600,14.849133544921875,12.204000473022461,2.6040000915527344,-0.0070500001311302185
1766408813646136300,14.85913623046875,12.316950798034668,2.7499501705169678,-0.18900001049041748
1766408813656139000,14.869138916015626,12.046051025390625,2.9170501232147217,-0.1969500035047531
1766408813666141700,14.8791416015625,10.621950149536133,2.31600022315979,-0.45000001788139343
1766408813676144400,14.889144287109374,9.523050308227539,1.960050106048584,-0.7710000276565552
1766408813691148300,14.904148193359376,8.292000770568848,2.059950113296509,-0.7570500373840332
1766408813701151000,14.91415087890625,8.206049919128418,2.0839500427246094,-0.8689500689506531
1766408813716155100,14.929155029296876,9.559050559997559,1.7730001211166382,-1.3270500898361206
1766408813726157800,14.93915771484375,10.746000289916992,1.4659500122070312,-1.5010501146316528
1766408813741161700,14.95416162109375,12.583050727844238,1.1050500869750977,-1.3189500570297241
1766408813751164400,14.964164306640624,13.128000259399414,1.0350000858306885,-1.264050006866455
1766408813761167000,14.9741669921875,13.07295036315918,1.0090500116348267,-1.1299500465393066
1766408813771169800,14.984169677734375,12.27405071258545,1.0810500383377075,-0.9289500713348389
1766408813786174000,14.999174072265625,10.488000869750977,1.5070500373840332,-0.687000036239624
1766408813796176400,15.00917626953125,9.666000366210938,1.64805006980896,-0.4069500267505646
1766408813806179000,15.019178955078125,9.172950744628906,1.67205011844635,-0.10305000841617584
1766408813816182000,15.02918212890625,8.958000183105469,1.7230501174926758,-0.09795000404119492
1766408813826184400,15.039184326171876,8.833050727844238,1.609950065612793,-0.11505000293254852
1766408813836187100,15.049187255859374,8.872050285339355,1.7680500745773315,0.1570500135421753
1766408813851191300,15.06419140625,8.781000137329102,2.0460000038146973,0.1380000114440918
1766408813861194000,15.074194091796874,8.706000328063965,2.4310500621795654,-0.27300000190734863
1766408813871196400,15.084196533203125,8.635050773620605,2.7210001945495605,-0.6970500349998474
1766408813886200600,15.09920068359375,8.905050277709961,2.9100000858306885,-1.1850000619888306
1766408813896203300,15.109203369140625,9.268950462341309,2.7210001945495605,-1.281000018119812
1766408813906206000,15.1192060546875,10.11405086517334,2.2609500885009766,-1.1160000562667847
1766408813916208600,15.129208740234375,11.046000480651855,1.8400501012802124,-0.7500000596046448
1766408813926211300,15.13921142578125,11.614950180053711,1.5169501304626465,-0.036000002175569534
1766408813936214000,15.149214111328124,11.814000129699707,1.396950125694275,0.6600000262260437
1766408813946216700,15.159216796875,11.632050514221191,1.5070500373840332,1.3609501123428345
1766408813956219100,15.16921923828125,11.047950744628906,1.67205011844635,2.179949998855591
1766408813966221800,15.179221923828125,10.119000434875488,1.7869501113891602,2.826000213623047
1766408813976224800,15.189224853515626,9.007950782775879,1.549950122833252,2.596950054168701
1766408813986227200,15.199227294921876,8.665950775146484,1.9930500984191895,2.16795015335083
1766408813996230100,15.209230224609374,8.335050582885742,2.3329501152038574,1.6560001373291016
1766408814006232800,15.21923291015625,8.187000274658203,2.7300000190734863,1.2990000247955322
1766408814016235500,15.229235595703125,7.818000316619873,3.4390501976013184,-0.16095000505447388
1766408814026238000,15.239238037109375,9.348000526428223,2.9599502086639404,0.5230500102043152
1766408814036240600,15.24924072265625,8.433000564575195,3.145050048828125,0.7770000100135803
1766408814046243300,15.259243408203124,7.654950141906738,3.5470502376556396,0.8059500455856323
1766408814056246000,15.26924609375,7.180950164794922,4.183950424194336,0.46095001697540283
1766408814066248700,15.279248779296875,7.0660505294799805,4.267950057983398,1.0549499988555908
1766408814076251400,15.28925146484375,7.1449503898620605,4.4569501876831055,2.5129501819610596
1766408814086254000,15.299254150390626,7.002000331878662,4.653000354766846,3.142050266265869
1766408814096256800,15.3092568359375,6.89400053024292,4.909050464630127,4.026000022888184
1766408814106259500,15.319259521484375,6.838950157165527,4.42995023727417,3.504000186920166
1766408814116262100,15.32926220703125,7.1449503898620605,3.825000286102295,2.4979500770568848
1766408814126264800,15.339264892578125,7.737000465393066,3.6190502643585205,1.821000099182129
1766408814136267500,15.349267578125,8.07705020904541,3.613950252532959,1.5619500875473022
1766408814146270200,15.359270263671876,8.443050384521484,3.7549502849578857,1.4640001058578491
1766408814156272600,15.369272705078124,8.670000076293945,3.8460001945495605,1.3780500888824463
1766408814166275600,15.379275634765625,8.473950386047363,3.8080501556396484,1.3200000524520874
1766408814176278000,15.389278076171875,8.290050506591797,3.68595027923584,1.2750000953674316
1766408814186280700,15.39928076171875,8.460000038146973,3.561000108718872,1.4140501022338867
1766408814196283400,15.409283447265626,8.62695026397705,3.4420502185821533,1.6630500555038452
